"subj_idx","trial.num","stim","rt","response"
"1",1,"unambiguous",1.315,1
"1",2,"unambiguous",1.429,1
"1",3,"unambiguous",0.915,1
"1",4,"unambiguous",0.964,1
"1",5,"unambiguous",0.724,1
"1",6,"implicature",0.692,1
"1",7,"unambiguous",0.812,1
"1",8,"unambiguous",0.685,1
"1",9,"unambiguous",0.827,1
"1",10,"implicature",0.817,1
"1",11,"unambiguous",0.731,1
"1",12,"unambiguous",0.767,1
"1",13,"implicature",0.662,1
"1",14,"implicature",0.684,0
"1",15,"implicature",0.625,1
"1",16,"unambiguous",0.665,1
"1",17,"implicature",0.686,1
"1",18,"implicature",0.863,1
"1",19,"implicature",0.629,1
"1",20,"unambiguous",0.642,1
"1",21,"implicature",0.653,1
"1",22,"implicature",0.626,0
"1",23,"unambiguous",0.585,1
"1",24,"unambiguous",0.609,1
"1",25,"unambiguous",0.592,1
"1",26,"implicature",0.666,1
"1",27,"unambiguous",0.625,1
"1",28,"implicature",0.611,0
"1",29,"unambiguous",0.624,1
"1",30,"unambiguous",0.719,1
"1",31,"implicature",1.087,1
"1",32,"unambiguous",0.706,1
"1",33,"implicature",0.675,0
"1",34,"unambiguous",0.587,1
"1",35,"implicature",0.688,0
"1",36,"implicature",0.625,1
"1",37,"implicature",0.568,0
"1",38,"unambiguous",0.583,1
"1",39,"unambiguous",0.64,1
"1",40,"unambiguous",0.673,1
"1",41,"unambiguous",0.631,1
"1",42,"unambiguous",0.633,1
"1",43,"implicature",0.595,1
"1",44,"implicature",0.588,0
"1",45,"unambiguous",0.591,0
"1",46,"unambiguous",0.967,1
"1",47,"implicature",0.781,0
"1",48,"unambiguous",0.751,1
"1",49,"implicature",0.722,1
"1",50,"implicature",0.765,1
"1",51,"unambiguous",0.681,1
"1",52,"implicature",0.736,1
"1",53,"implicature",0.786,0
"1",54,"implicature",0.804,0
"1",55,"implicature",0.649,0
"1",56,"unambiguous",0.698,1
"1",57,"implicature",0.885,0
"1",58,"unambiguous",0.598,1
"1",59,"implicature",0.728,1
"1",60,"unambiguous",0.704,1
"1",61,"unambiguous",0.709,1
"1",62,"implicature",0.578,1
"1",63,"unambiguous",0.64,1
"1",64,"unambiguous",0.627,1
"1",65,"implicature",0.655,1
"1",66,"unambiguous",0.64,1
"1",67,"implicature",0.556,0
"1",68,"unambiguous",0.496,1
"1",69,"implicature",0.542,0
"1",70,"unambiguous",0.909,1
"1",71,"unambiguous",0.564,1
"1",72,"implicature",0.786,1
"1",73,"implicature",0.64,0
"1",74,"unambiguous",0.64,1
"1",75,"implicature",0.672,1
"1",76,"unambiguous",0.705,1
"1",77,"unambiguous",0.638,1
"1",78,"implicature",0.627,0
"1",79,"implicature",0.632,1
"1",80,"unambiguous",0.654,1
"1",81,"unambiguous",0.648,1
"1",82,"unambiguous",0.614,1
"1",83,"implicature",0.743,1
"1",84,"unambiguous",0.675,1
"1",85,"unambiguous",0.534,1
"1",86,"implicature",0.607,0
"1",87,"implicature",0.546,1
"1",88,"unambiguous",0.5,1
"1",89,"implicature",0.556,1
"1",90,"implicature",0.563,1
"1",91,"unambiguous",0.645,1
"1",92,"implicature",0.622,1
"1",93,"implicature",0.606,0
"1",94,"implicature",0.499,0
"1",95,"implicature",0.598,1
"1",96,"unambiguous",0.687,1
"1",97,"unambiguous",0.607,1
"1",98,"implicature",0.564,1
"1",99,"unambiguous",0.655,1
"1",100,"implicature",0.658,0
"1",101,"implicature",0.564,0
"1",102,"implicature",0.532,0
"1",103,"implicature",0.566,1
"1",104,"implicature",0.485,1
"1",105,"implicature",1.054,0
"1",106,"unambiguous",0.766,1
"1",107,"implicature",0.576,1
"1",108,"unambiguous",0.588,1
"1",109,"unambiguous",0.615,1
"1",110,"unambiguous",0.647,1
"1",111,"unambiguous",0.648,1
"1",112,"unambiguous",0.504,0
"1",113,"implicature",0.672,1
"1",114,"unambiguous",0.572,1
"1",115,"implicature",0.633,0
"1",116,"implicature",0.544,0
"1",117,"implicature",0.595,0
"1",118,"unambiguous",0.572,1
"1",119,"implicature",0.602,1
"1",120,"implicature",0.572,1
"2",3,"implicature",1.166,1
"2",4,"implicature",2.017,1
"2",5,"unambiguous",1.132,1
"2",6,"implicature",1.308,1
"2",7,"implicature",0.89,1
"2",8,"unambiguous",1.099,1
"2",9,"implicature",1.07,1
"2",10,"implicature",0.77,1
"2",11,"implicature",1.347,1
"2",12,"unambiguous",1.075,1
"2",13,"unambiguous",0.794,1
"2",14,"unambiguous",0.947,1
"2",15,"implicature",0.79,1
"2",16,"unambiguous",1.012,1
"2",17,"implicature",0.974,1
"2",18,"unambiguous",1.106,1
"2",19,"unambiguous",1.138,1
"2",20,"unambiguous",0.982,1
"2",21,"implicature",1.504,1
"2",22,"unambiguous",0.993,1
"2",23,"implicature",0.784,1
"2",24,"implicature",0.95,1
"2",25,"implicature",1.045,1
"2",26,"unambiguous",0.987,1
"2",27,"unambiguous",0.975,1
"2",28,"unambiguous",1.181,1
"2",29,"implicature",1.04,1
"2",30,"unambiguous",1.054,1
"2",31,"implicature",1.014,1
"2",32,"implicature",1.092,1
"2",33,"implicature",1.502,1
"2",34,"implicature",0.731,1
"2",35,"unambiguous",0.946,1
"2",36,"unambiguous",1.206,1
"2",37,"implicature",0.759,1
"2",38,"unambiguous",0.949,1
"2",39,"implicature",0.795,1
"2",40,"implicature",0.839,1
"2",41,"unambiguous",0.777,1
"2",42,"implicature",0.914,1
"2",43,"unambiguous",0.713,1
"2",44,"unambiguous",0.721,1
"2",45,"implicature",0.839,1
"2",46,"unambiguous",1.58,1
"2",48,"implicature",0.73,1
"2",49,"unambiguous",1.002,1
"2",50,"unambiguous",2.346,1
"2",51,"unambiguous",0.874,1
"2",52,"implicature",0.969,1
"2",53,"unambiguous",1.538,1
"2",54,"unambiguous",0.962,1
"2",55,"implicature",1.447,1
"2",56,"implicature",0.833,1
"2",57,"unambiguous",0.699,1
"2",58,"implicature",0.785,1
"2",59,"unambiguous",0.948,1
"2",60,"unambiguous",0.612,1
"2",61,"implicature",0.993,1
"2",62,"unambiguous",0.619,1
"2",63,"implicature",0.571,1
"2",64,"implicature",0.658,1
"2",65,"implicature",0.582,1
"2",66,"implicature",0.888,1
"2",67,"implicature",1.508,1
"2",68,"implicature",0.561,1
"2",69,"implicature",0.743,1
"2",70,"implicature",0.55,1
"2",71,"unambiguous",0.896,1
"2",72,"unambiguous",0.682,1
"2",73,"unambiguous",1.015,1
"2",74,"implicature",1.421,1
"2",75,"unambiguous",1.678,1
"2",76,"unambiguous",0.923,1
"2",77,"unambiguous",0.892,1
"2",78,"unambiguous",1.06,1
"2",79,"unambiguous",0.783,1
"2",80,"implicature",1.38,1
"2",81,"implicature",0.759,1
"2",82,"unambiguous",0.892,1
"2",83,"implicature",1.737,1
"2",84,"implicature",0.691,1
"2",85,"implicature",1.377,1
"2",86,"implicature",0.665,1
"2",87,"implicature",0.852,1
"2",88,"unambiguous",1.747,1
"2",89,"unambiguous",0.809,1
"2",90,"unambiguous",1.244,1
"2",91,"implicature",1.035,1
"2",92,"implicature",1.402,1
"2",93,"unambiguous",1.057,1
"2",94,"unambiguous",0.887,1
"2",95,"implicature",1.142,1
"2",97,"unambiguous",1.319,1
"2",98,"unambiguous",0.874,1
"2",99,"implicature",1.517,1
"2",100,"unambiguous",0.769,1
"2",101,"unambiguous",1.707,1
"2",102,"implicature",1.282,1
"2",103,"unambiguous",0.974,1
"2",104,"unambiguous",1.069,1
"2",105,"implicature",1.095,1
"2",106,"unambiguous",1.05,1
"2",107,"unambiguous",0.757,1
"2",108,"unambiguous",0.659,1
"2",109,"implicature",0.875,1
"2",110,"unambiguous",0.728,1
"2",111,"implicature",1.054,1
"2",112,"unambiguous",1.058,1
"2",113,"implicature",0.885,1
"2",114,"implicature",1.325,1
"2",115,"unambiguous",0.779,1
"2",116,"implicature",0.853,1
"2",117,"unambiguous",0.973,1
"2",118,"implicature",0.758,1
"2",119,"implicature",0.827,1
"2",120,"implicature",0.844,1
"3",1,"unambiguous",1.599,1
"3",2,"implicature",1.832,0
"3",3,"implicature",0.762,0
"3",4,"unambiguous",2.324,1
"3",5,"unambiguous",0.995,1
"3",6,"unambiguous",0.81,1
"3",7,"unambiguous",0.988,1
"3",8,"implicature",1.172,1
"3",9,"implicature",1.065,1
"3",10,"implicature",1.666,1
"3",11,"unambiguous",0.867,1
"3",12,"unambiguous",1.115,1
"3",13,"implicature",1.041,1
"3",14,"implicature",0.826,1
"3",15,"implicature",1.073,1
"3",16,"implicature",1.396,1
"3",17,"unambiguous",1.284,1
"3",18,"implicature",1.546,0
"3",19,"implicature",1.25,0
"3",20,"implicature",0.963,0
"3",21,"unambiguous",1.067,1
"3",22,"implicature",0.987,0
"3",23,"implicature",1.075,1
"3",24,"unambiguous",0.873,1
"3",25,"unambiguous",1.005,1
"3",26,"unambiguous",0.836,1
"3",27,"implicature",1.012,0
"3",28,"unambiguous",0.964,1
"3",29,"implicature",0.683,0
"3",30,"implicature",0.705,0
"3",31,"implicature",0.938,0
"3",32,"implicature",0.86,0
"3",33,"implicature",1.234,1
"3",34,"implicature",1.115,1
"3",35,"unambiguous",0.954,1
"3",36,"implicature",0.777,1
"3",37,"implicature",0.771,1
"3",38,"unambiguous",0.803,1
"3",39,"unambiguous",0.786,1
"3",40,"unambiguous",0.884,1
"3",41,"implicature",0.849,0
"3",42,"implicature",1.018,1
"3",43,"implicature",0.971,0
"3",44,"unambiguous",0.835,1
"3",45,"implicature",1.021,0
"3",46,"unambiguous",1.052,1
"3",47,"implicature",1.036,0
"3",48,"unambiguous",0.779,1
"3",49,"implicature",0.778,1
"3",50,"implicature",0.956,0
"3",51,"implicature",1.122,0
"3",52,"unambiguous",1.073,1
"3",53,"unambiguous",0.819,1
"3",54,"implicature",1.174,0
"3",55,"unambiguous",1.195,1
"3",56,"implicature",0.732,0
"3",57,"unambiguous",0.802,1
"3",58,"unambiguous",0.754,1
"3",59,"unambiguous",0.732,1
"3",60,"implicature",0.698,1
"3",61,"implicature",0.788,0
"3",62,"unambiguous",0.82,1
"3",63,"unambiguous",1.042,1
"3",64,"implicature",1.181,1
"3",65,"unambiguous",0.93,1
"3",66,"implicature",0.875,1
"3",67,"unambiguous",0.692,1
"3",68,"implicature",0.882,0
"3",69,"implicature",0.66,1
"3",70,"unambiguous",0.899,1
"3",72,"implicature",0.834,0
"3",71,"unambiguous",1.368,1
"3",73,"unambiguous",1.096,1
"3",74,"unambiguous",0.62,1
"3",75,"unambiguous",1.069,1
"3",76,"unambiguous",1.122,1
"3",77,"implicature",1.652,0
"3",78,"unambiguous",1.019,1
"3",79,"unambiguous",1.185,1
"3",80,"implicature",1.153,1
"3",81,"implicature",1.042,0
"3",82,"implicature",0.851,0
"3",83,"unambiguous",0.905,1
"3",84,"implicature",0.826,0
"3",85,"unambiguous",0.716,1
"3",86,"implicature",0.881,0
"3",87,"unambiguous",1.021,1
"3",88,"implicature",0.729,1
"3",89,"implicature",0.627,0
"3",90,"implicature",0.899,0
"3",91,"unambiguous",0.812,1
"3",92,"implicature",0.82,1
"3",93,"implicature",1.043,0
"3",94,"unambiguous",0.891,1
"3",95,"unambiguous",0.714,1
"3",96,"implicature",0.892,0
"3",97,"implicature",1.004,0
"3",98,"unambiguous",0.667,1
"3",99,"implicature",0.762,1
"3",100,"unambiguous",0.732,1
"3",101,"implicature",0.836,0
"3",102,"unambiguous",0.874,1
"3",103,"unambiguous",0.763,1
"3",104,"implicature",0.643,0
"3",105,"implicature",0.931,0
"3",106,"unambiguous",1.057,1
"3",107,"unambiguous",0.891,1
"3",108,"implicature",1.021,0
"3",109,"unambiguous",0.651,1
"3",110,"unambiguous",0.867,1
"3",111,"implicature",0.707,1
"3",112,"unambiguous",0.865,1
"3",113,"unambiguous",0.851,1
"3",114,"implicature",0.834,0
"3",115,"unambiguous",0.812,1
"3",116,"unambiguous",0.786,1
"3",117,"unambiguous",0.923,1
"3",118,"unambiguous",0.853,1
"3",119,"unambiguous",1.066,1
"3",120,"unambiguous",0.777,1
"4",1,"unambiguous",1.452,1
"4",2,"implicature",1.352,1
"4",3,"unambiguous",1.079,1
"4",4,"implicature",1.097,1
"4",5,"implicature",0.943,0
"4",6,"unambiguous",1.447,1
"4",7,"implicature",0.971,1
"4",8,"unambiguous",0.989,1
"4",9,"unambiguous",0.984,1
"4",10,"implicature",1.073,1
"4",11,"unambiguous",0.99,1
"4",12,"implicature",1.048,1
"4",13,"implicature",0.799,1
"4",14,"implicature",0.755,1
"4",15,"unambiguous",0.763,1
"4",16,"implicature",0.781,1
"4",17,"implicature",0.729,1
"4",18,"implicature",0.938,1
"4",19,"implicature",1.068,1
"4",20,"implicature",0.921,1
"4",21,"unambiguous",0.992,1
"4",22,"implicature",1.283,1
"4",23,"implicature",1.176,1
"4",24,"implicature",0.77,0
"4",25,"unambiguous",1.503,1
"4",26,"unambiguous",1.321,1
"4",27,"unambiguous",0.864,1
"4",29,"unambiguous",1.054,1
"4",30,"implicature",0.88,1
"4",31,"unambiguous",0.953,1
"4",32,"implicature",0.985,1
"4",33,"unambiguous",1.079,1
"4",34,"unambiguous",0.912,1
"4",35,"implicature",0.772,1
"4",36,"implicature",0.826,1
"4",37,"unambiguous",1.077,1
"4",38,"implicature",0.845,1
"4",39,"unambiguous",0.997,1
"4",40,"implicature",1.059,1
"4",41,"unambiguous",0.953,1
"4",42,"implicature",1.013,1
"4",43,"implicature",0.948,1
"4",44,"unambiguous",0.942,1
"4",45,"implicature",0.769,1
"4",46,"unambiguous",1.127,1
"4",47,"implicature",0.762,1
"4",48,"implicature",0.845,1
"4",49,"implicature",0.708,1
"4",50,"implicature",0.604,1
"4",51,"implicature",0.751,1
"4",52,"unambiguous",0.942,1
"4",53,"implicature",0.732,1
"4",55,"implicature",0.891,1
"4",56,"unambiguous",0.88,1
"4",57,"unambiguous",0.824,1
"4",58,"implicature",0.889,1
"4",59,"unambiguous",1.059,1
"4",60,"implicature",0.947,1
"4",61,"unambiguous",0.898,1
"4",62,"unambiguous",0.829,1
"4",63,"implicature",0.943,1
"4",64,"implicature",0.799,1
"4",65,"unambiguous",1.153,0
"4",66,"implicature",1.725,1
"4",67,"implicature",1.234,1
"4",70,"unambiguous",1.724,1
"4",71,"implicature",1.312,1
"4",72,"unambiguous",0.935,1
"4",73,"unambiguous",0.832,1
"4",74,"implicature",0.973,0
"4",75,"unambiguous",1.74,1
"4",76,"unambiguous",1.013,1
"4",77,"unambiguous",0.912,1
"4",78,"implicature",0.765,1
"4",79,"unambiguous",0.755,1
"4",80,"implicature",0.904,1
"4",81,"unambiguous",0.893,1
"4",82,"unambiguous",0.868,1
"4",83,"unambiguous",0.718,1
"4",84,"unambiguous",0.772,1
"4",85,"unambiguous",1.082,1
"4",86,"unambiguous",0.618,1
"4",87,"implicature",0.718,1
"4",88,"unambiguous",0.852,1
"4",89,"implicature",0.971,0
"4",90,"unambiguous",1.289,1
"4",91,"implicature",1.074,1
"4",92,"unambiguous",0.875,1
"4",93,"implicature",1.112,1
"4",94,"implicature",1.581,1
"4",95,"unambiguous",0.834,1
"4",96,"unambiguous",1.173,1
"4",97,"unambiguous",1.757,1
"4",98,"implicature",1.143,1
"4",99,"implicature",0.769,1
"4",100,"unambiguous",0.772,1
"4",101,"implicature",0.989,1
"4",102,"implicature",0.825,1
"4",103,"implicature",1.178,1
"4",104,"implicature",0.772,1
"4",105,"implicature",1.474,1
"4",106,"implicature",2.291,1
"4",108,"unambiguous",0.952,1
"4",109,"unambiguous",1.309,1
"4",110,"implicature",0.655,1
"4",111,"unambiguous",0.985,0
"4",112,"unambiguous",1.474,1
"4",113,"unambiguous",1.304,1
"4",114,"unambiguous",0.945,1
"4",115,"unambiguous",1.266,1
"4",116,"unambiguous",0.714,1
"4",117,"implicature",1.246,1
"4",118,"implicature",1.348,0
"4",119,"unambiguous",0.905,1
"4",120,"unambiguous",0.997,1
"6",1,"unambiguous",1.436,1
"6",2,"implicature",1.817,1
"6",3,"unambiguous",1.735,1
"6",4,"unambiguous",0.996,1
"6",5,"unambiguous",0.929,1
"6",6,"implicature",1.002,1
"6",7,"unambiguous",1.943,1
"6",8,"implicature",1.201,1
"6",9,"unambiguous",1.363,1
"6",10,"unambiguous",1.309,1
"6",11,"implicature",1.83,0
"6",12,"implicature",1.144,1
"6",13,"implicature",0.913,1
"6",14,"unambiguous",1.593,1
"6",15,"unambiguous",0.96,1
"6",16,"implicature",1.173,1
"6",17,"implicature",0.802,1
"6",18,"implicature",1.101,1
"6",19,"implicature",1.235,1
"6",20,"unambiguous",1.547,1
"6",21,"unambiguous",1.889,1
"6",22,"unambiguous",1.466,1
"6",23,"unambiguous",1.029,1
"6",24,"unambiguous",0.857,1
"6",25,"unambiguous",0.731,1
"6",26,"implicature",1.132,1
"6",27,"unambiguous",1.12,1
"6",28,"unambiguous",0.675,1
"6",29,"unambiguous",0.855,1
"6",30,"implicature",0.879,1
"6",31,"implicature",1.187,1
"6",32,"unambiguous",1.133,1
"6",33,"implicature",1.545,1
"6",34,"unambiguous",0.868,0
"6",35,"implicature",1.408,1
"6",36,"unambiguous",0.841,1
"6",37,"implicature",1.03,1
"6",38,"unambiguous",1.07,1
"6",39,"unambiguous",1.106,1
"6",40,"unambiguous",0.883,1
"6",41,"unambiguous",0.974,1
"6",42,"unambiguous",1.065,1
"6",43,"unambiguous",0.888,1
"6",44,"implicature",0.997,1
"6",45,"implicature",1.061,1
"6",46,"implicature",1.142,1
"6",47,"implicature",1.153,1
"6",48,"implicature",0.941,1
"6",49,"implicature",1.046,1
"6",50,"unambiguous",0.967,1
"6",51,"unambiguous",1.189,1
"6",52,"implicature",1.021,1
"6",53,"unambiguous",1.027,1
"6",54,"unambiguous",1.176,1
"6",55,"unambiguous",0.988,1
"6",56,"unambiguous",0.875,1
"6",57,"unambiguous",1.11,1
"6",58,"implicature",1.342,1
"6",59,"implicature",1.657,1
"6",60,"unambiguous",2.139,1
"6",61,"implicature",0.87,1
"6",62,"unambiguous",0.847,1
"6",63,"unambiguous",1.022,1
"6",64,"implicature",1.057,1
"6",65,"implicature",1.247,1
"6",66,"implicature",0.815,1
"6",67,"implicature",1.198,1
"6",68,"unambiguous",0.705,1
"6",69,"implicature",0.989,1
"6",70,"implicature",1.175,1
"6",71,"implicature",1.398,1
"6",72,"unambiguous",0.939,1
"6",73,"implicature",1.428,1
"6",74,"unambiguous",0.762,1
"6",75,"implicature",1.026,1
"6",76,"unambiguous",1.085,1
"6",77,"implicature",0.987,1
"6",78,"implicature",0.835,1
"6",79,"implicature",0.793,1
"6",80,"unambiguous",0.903,1
"6",81,"unambiguous",0.962,1
"6",82,"unambiguous",1.589,1
"6",83,"unambiguous",1.039,1
"6",84,"implicature",0.924,1
"6",85,"implicature",0.864,1
"6",86,"implicature",1.035,1
"6",87,"unambiguous",1.143,1
"6",88,"implicature",1.513,0
"6",89,"implicature",1.238,1
"6",90,"implicature",0.964,1
"6",91,"implicature",0.967,1
"6",92,"unambiguous",1.132,1
"6",93,"implicature",1.074,1
"6",94,"unambiguous",0.963,1
"6",95,"implicature",1.07,1
"6",96,"unambiguous",1.033,1
"6",97,"implicature",1.281,1
"6",98,"unambiguous",1.12,1
"6",99,"unambiguous",0.851,1
"6",100,"unambiguous",0.908,1
"6",101,"implicature",0.749,1
"6",102,"implicature",1.215,1
"6",103,"unambiguous",0.799,1
"6",104,"implicature",0.765,1
"6",105,"implicature",1.123,1
"6",106,"implicature",0.972,1
"6",107,"unambiguous",1.221,1
"6",108,"unambiguous",1.751,1
"6",109,"unambiguous",1.216,1
"6",110,"unambiguous",0.809,1
"6",111,"implicature",0.718,1
"6",112,"implicature",1.437,1
"6",113,"implicature",0.81,1
"6",114,"implicature",0.856,1
"6",115,"unambiguous",1.045,1
"6",116,"unambiguous",0.844,1
"6",117,"implicature",0.859,1
"6",118,"implicature",1.767,1
"6",119,"unambiguous",1.205,1
"6",120,"implicature",1.562,1
"7",2,"unambiguous",0.832,1
"7",3,"unambiguous",0.795,1
"7",4,"unambiguous",1.496,1
"7",6,"unambiguous",1.417,1
"7",7,"implicature",0.92,1
"7",8,"implicature",1.064,0
"7",9,"unambiguous",0.809,1
"7",10,"implicature",0.67,1
"7",11,"unambiguous",0.732,1
"7",12,"implicature",0.82,1
"7",13,"implicature",0.977,0
"7",14,"implicature",0.749,0
"7",15,"unambiguous",0.789,1
"7",16,"unambiguous",0.694,1
"7",17,"unambiguous",0.641,1
"7",18,"implicature",0.93,1
"7",19,"implicature",0.855,0
"7",20,"unambiguous",0.627,1
"7",21,"unambiguous",0.804,1
"7",22,"implicature",0.874,0
"7",23,"unambiguous",0.698,1
"7",24,"implicature",0.726,1
"7",25,"implicature",0.72,0
"7",26,"unambiguous",0.657,1
"7",27,"implicature",0.617,0
"7",28,"unambiguous",0.591,1
"7",29,"unambiguous",0.633,1
"7",30,"implicature",0.563,0
"7",31,"implicature",0.653,0
"7",32,"implicature",0.585,0
"7",33,"implicature",0.648,0
"7",34,"unambiguous",0.789,1
"7",35,"implicature",0.795,0
"7",36,"unambiguous",1.055,1
"7",37,"implicature",0.624,1
"7",38,"unambiguous",0.559,1
"7",39,"implicature",0.601,1
"7",40,"unambiguous",0.726,1
"7",41,"implicature",0.544,0
"7",42,"unambiguous",0.634,1
"7",43,"unambiguous",0.687,1
"7",44,"unambiguous",0.685,1
"7",45,"unambiguous",0.617,1
"7",46,"unambiguous",0.623,1
"7",47,"implicature",0.555,1
"7",48,"unambiguous",0.627,1
"7",49,"unambiguous",0.534,0
"7",50,"implicature",0.711,1
"7",51,"implicature",0.667,1
"7",52,"implicature",0.6,1
"7",53,"implicature",0.617,1
"7",54,"implicature",0.613,0
"7",55,"unambiguous",0.649,1
"7",56,"implicature",0.646,0
"7",57,"implicature",0.655,0
"7",58,"implicature",0.693,0
"7",59,"unambiguous",0.789,1
"7",60,"implicature",0.591,1
"7",61,"unambiguous",0.576,1
"7",62,"unambiguous",0.588,1
"7",63,"implicature",0.717,1
"7",64,"implicature",0.573,1
"7",65,"implicature",0.613,1
"7",66,"implicature",0.629,0
"7",67,"implicature",0.541,0
"7",68,"unambiguous",0.494,0
"7",69,"implicature",0.646,0
"7",71,"unambiguous",0.603,1
"7",70,"implicature",0.626,0
"7",72,"unambiguous",0.553,1
"7",73,"unambiguous",0.518,1
"7",74,"implicature",0.592,1
"7",79,"unambiguous",0.547,1
"7",78,"implicature",0.558,0
"7",77,"implicature",0.553,1
"7",75,"unambiguous",0.626,1
"7",76,"implicature",0.511,1
"7",80,"unambiguous",0.637,1
"7",81,"implicature",0.47,1
"7",82,"implicature",0.567,0
"7",83,"unambiguous",0.544,1
"7",84,"implicature",0.557,0
"7",85,"implicature",0.577,1
"7",86,"implicature",0.609,1
"7",87,"implicature",0.541,0
"7",88,"unambiguous",0.656,1
"7",89,"unambiguous",0.558,1
"7",90,"unambiguous",0.686,1
"7",91,"unambiguous",0.574,1
"7",92,"unambiguous",0.525,1
"7",93,"unambiguous",0.644,1
"7",94,"unambiguous",0.538,1
"7",95,"unambiguous",0.5,1
"7",96,"unambiguous",0.54,1
"7",97,"implicature",0.518,0
"7",98,"implicature",0.494,0
"7",99,"implicature",0.775,0
"7",100,"implicature",0.714,0
"7",101,"unambiguous",0.51,1
"7",102,"unambiguous",0.576,1
"7",103,"implicature",0.474,0
"7",104,"implicature",0.493,0
"7",105,"implicature",0.577,0
"7",106,"unambiguous",0.506,1
"7",107,"unambiguous",0.592,1
"7",108,"unambiguous",0.442,0
"7",109,"unambiguous",0.77,1
"7",110,"unambiguous",0.64,1
"7",111,"unambiguous",0.498,1
"7",112,"unambiguous",0.646,1
"7",113,"unambiguous",0.636,1
"7",114,"unambiguous",0.596,1
"7",115,"unambiguous",0.584,1
"7",116,"implicature",0.588,0
"7",117,"implicature",0.703,1
"7",118,"implicature",0.489,1
"7",119,"implicature",0.862,0
"7",120,"implicature",0.442,1
"8",2,"unambiguous",1.894,1
"8",3,"implicature",1.102,1
"8",4,"unambiguous",1.16,0
"8",5,"unambiguous",1.916,1
"8",6,"implicature",1.219,1
"8",7,"unambiguous",1.024,1
"8",8,"unambiguous",1.206,1
"8",9,"unambiguous",1.558,1
"8",10,"implicature",1.337,1
"8",11,"unambiguous",1.263,0
"8",12,"implicature",1.499,1
"8",13,"unambiguous",1.724,1
"8",14,"implicature",1.221,1
"8",15,"implicature",1.464,1
"8",16,"implicature",1.752,1
"8",17,"unambiguous",1.357,1
"8",18,"unambiguous",1.258,1
"8",19,"unambiguous",1.306,1
"8",20,"implicature",1.956,0
"8",22,"implicature",1.476,1
"8",23,"implicature",0.958,1
"8",24,"implicature",0.813,1
"8",25,"unambiguous",1.622,1
"8",26,"unambiguous",0.721,1
"8",27,"implicature",1.24,1
"8",28,"unambiguous",1.353,1
"8",29,"unambiguous",1.473,0
"8",31,"implicature",1.723,1
"8",32,"unambiguous",1.566,1
"8",33,"implicature",1.435,1
"8",34,"unambiguous",1.651,1
"8",35,"implicature",1.219,1
"8",36,"unambiguous",1.481,1
"8",37,"unambiguous",0.911,1
"8",38,"implicature",1.327,1
"8",39,"implicature",1.354,1
"8",40,"unambiguous",1.185,1
"8",41,"implicature",1.005,1
"8",42,"unambiguous",1.253,1
"8",43,"implicature",1.178,1
"8",44,"unambiguous",1.186,1
"8",45,"implicature",1.015,1
"8",46,"unambiguous",1.448,1
"8",47,"unambiguous",2.155,1
"8",48,"unambiguous",1.786,1
"8",50,"implicature",1.226,1
"8",51,"unambiguous",1.154,1
"8",52,"unambiguous",1.163,1
"8",53,"implicature",1.3,1
"8",54,"unambiguous",1.475,1
"8",55,"implicature",1.302,1
"8",56,"implicature",1.547,1
"8",57,"unambiguous",1.612,1
"8",58,"unambiguous",1.23,1
"8",61,"unambiguous",1.307,1
"8",62,"unambiguous",1.213,1
"8",63,"unambiguous",1.397,1
"8",64,"unambiguous",0.945,1
"8",65,"implicature",1.03,1
"8",66,"unambiguous",1.237,1
"8",67,"implicature",1.317,1
"8",68,"implicature",1.047,1
"8",69,"unambiguous",1.15,1
"8",70,"unambiguous",1.287,1
"8",71,"implicature",1.164,1
"8",72,"implicature",1.27,0
"8",73,"implicature",1.276,0
"8",75,"implicature",1.1,1
"8",76,"unambiguous",0.999,1
"8",77,"implicature",1.024,1
"8",78,"unambiguous",1.37,1
"8",79,"implicature",1.512,0
"8",80,"implicature",1.938,1
"8",81,"implicature",1.433,1
"8",82,"implicature",1.497,1
"8",83,"unambiguous",1.615,1
"8",84,"implicature",1.303,1
"8",85,"implicature",1.011,1
"8",86,"implicature",1.743,1
"8",87,"unambiguous",1.43,1
"8",89,"unambiguous",1.406,1
"8",90,"unambiguous",1.654,1
"8",91,"implicature",1.519,1
"8",93,"unambiguous",1.881,1
"8",94,"implicature",0.935,1
"8",95,"implicature",0.908,1
"8",96,"implicature",1.291,1
"8",97,"implicature",0.715,1
"8",98,"unambiguous",1.452,1
"8",99,"implicature",1.312,1
"8",100,"unambiguous",1.403,1
"8",101,"implicature",1.573,1
"8",102,"implicature",1.097,1
"8",103,"implicature",1.046,1
"8",104,"implicature",1.13,1
"8",105,"unambiguous",1.447,1
"8",106,"implicature",1.169,1
"8",107,"implicature",1.006,1
"8",108,"implicature",1.978,1
"8",109,"implicature",1.32,1
"8",110,"unambiguous",1.365,1
"8",111,"unambiguous",1.002,1
"8",112,"unambiguous",1.029,1
"8",113,"unambiguous",1.081,1
"8",115,"implicature",0.9,1
"8",116,"unambiguous",1.037,1
"8",117,"implicature",0.833,1
"8",118,"unambiguous",1.239,1
"8",119,"unambiguous",0.986,1
"8",120,"unambiguous",1.162,1
"9",1,"implicature",0.89,1
"9",2,"unambiguous",1.135,1
"9",3,"implicature",1.139,1
"9",4,"unambiguous",1.244,1
"9",5,"implicature",0.859,1
"9",6,"unambiguous",0.883,1
"9",7,"unambiguous",0.801,1
"9",8,"unambiguous",0.93,1
"9",9,"implicature",0.89,1
"9",10,"implicature",0.777,1
"9",11,"unambiguous",0.866,1
"9",12,"implicature",0.755,1
"9",13,"unambiguous",0.756,1
"9",14,"unambiguous",0.636,1
"9",15,"implicature",0.732,0
"9",16,"unambiguous",1.181,1
"9",17,"implicature",1.829,1
"9",18,"implicature",0.724,1
"9",19,"implicature",0.676,1
"9",20,"implicature",0.725,1
"9",21,"unambiguous",1.381,1
"9",22,"implicature",0.844,1
"9",23,"unambiguous",0.772,1
"9",24,"implicature",0.826,1
"9",25,"implicature",0.668,1
"9",26,"implicature",0.666,1
"9",27,"implicature",0.675,1
"9",28,"implicature",1.085,1
"9",29,"unambiguous",0.861,1
"9",30,"unambiguous",0.931,1
"9",31,"unambiguous",0.99,1
"9",32,"implicature",0.877,0
"9",33,"unambiguous",1.133,1
"9",34,"implicature",0.669,1
"9",35,"implicature",0.781,1
"9",36,"implicature",0.869,1
"9",37,"unambiguous",0.9,1
"9",38,"unambiguous",0.98,1
"9",39,"unambiguous",1.308,1
"9",40,"implicature",0.925,1
"9",41,"implicature",0.709,1
"9",42,"unambiguous",1.006,1
"9",43,"implicature",1.317,1
"9",44,"implicature",0.723,1
"9",45,"implicature",0.936,1
"9",46,"unambiguous",1.051,1
"9",47,"unambiguous",1.355,1
"9",48,"unambiguous",1.102,1
"9",49,"unambiguous",0.78,1
"9",50,"implicature",0.958,1
"9",51,"unambiguous",1.451,1
"9",52,"implicature",0.699,1
"9",53,"unambiguous",0.732,1
"9",54,"implicature",0.804,1
"9",55,"unambiguous",1.365,1
"9",56,"unambiguous",1.109,1
"9",57,"unambiguous",1.252,1
"9",58,"implicature",0.805,1
"9",59,"unambiguous",0.729,1
"9",60,"implicature",0.933,1
"9",61,"implicature",0.86,1
"9",62,"implicature",0.675,1
"9",63,"unambiguous",0.764,1
"9",64,"implicature",1.196,1
"9",65,"unambiguous",0.877,1
"9",66,"implicature",0.692,1
"9",67,"implicature",1.219,1
"9",68,"implicature",1.02,1
"9",69,"implicature",0.716,1
"9",70,"unambiguous",0.978,1
"9",71,"unambiguous",0.94,1
"9",72,"implicature",0.813,1
"9",73,"implicature",1.268,1
"9",74,"unambiguous",0.845,1
"9",75,"unambiguous",0.732,1
"9",76,"unambiguous",0.74,1
"9",77,"unambiguous",0.94,1
"9",78,"unambiguous",0.853,1
"9",79,"implicature",0.836,1
"9",80,"unambiguous",0.932,1
"9",81,"unambiguous",0.645,1
"9",82,"implicature",0.861,1
"9",83,"implicature",0.686,1
"9",84,"implicature",1.244,1
"9",85,"unambiguous",0.636,1
"9",86,"implicature",0.707,1
"9",87,"unambiguous",0.541,0
"9",88,"unambiguous",1.541,1
"9",89,"implicature",0.657,1
"9",90,"unambiguous",1.025,1
"9",91,"implicature",1.181,1
"9",92,"unambiguous",0.732,1
"9",93,"implicature",0.812,1
"9",94,"implicature",0.678,1
"9",95,"unambiguous",0.948,0
"9",96,"unambiguous",0.907,1
"9",97,"implicature",1.02,1
"9",98,"implicature",0.885,1
"9",99,"implicature",0.797,1
"9",100,"implicature",0.637,1
"9",101,"unambiguous",0.821,1
"9",102,"implicature",1.348,1
"9",103,"unambiguous",1.085,1
"9",104,"unambiguous",0.701,1
"9",105,"unambiguous",0.852,1
"9",106,"implicature",0.701,1
"9",107,"unambiguous",0.852,1
"9",108,"implicature",0.844,0
"9",109,"unambiguous",1.028,1
"9",110,"unambiguous",1.419,1
"9",111,"implicature",0.74,1
"9",112,"implicature",0.949,1
"9",113,"unambiguous",1.108,1
"9",114,"unambiguous",1.22,1
"9",115,"unambiguous",0.684,1
"9",116,"unambiguous",0.878,1
"9",117,"unambiguous",0.645,1
"9",118,"implicature",1.108,1
"9",119,"implicature",0.764,1
"9",120,"unambiguous",1.069,1
"10",1,"implicature",2.42,1
"10",2,"implicature",2.455,1
"10",3,"implicature",1.223,1
"10",4,"implicature",1.311,1
"10",5,"unambiguous",2.196,1
"10",6,"unambiguous",1.574,1
"10",8,"implicature",1.153,1
"10",9,"unambiguous",1.453,1
"10",10,"unambiguous",1.341,1
"10",11,"unambiguous",1.015,1
"10",12,"unambiguous",1.328,1
"10",13,"implicature",1.124,1
"10",14,"implicature",1.237,1
"10",15,"implicature",0.795,1
"10",16,"implicature",0.81,1
"10",17,"implicature",1.57,1
"10",18,"unambiguous",1.61,1
"10",19,"implicature",1.92,1
"10",20,"unambiguous",2.084,1
"10",21,"implicature",1.135,1
"10",22,"implicature",0.801,1
"10",23,"unambiguous",1.23,1
"10",24,"unambiguous",1.623,1
"10",25,"implicature",1.039,1
"10",26,"implicature",1.089,1
"10",27,"unambiguous",1.159,1
"10",28,"implicature",1.236,1
"10",29,"implicature",1.458,1
"10",30,"implicature",0.871,1
"10",31,"unambiguous",1.581,1
"10",32,"implicature",1.036,1
"10",33,"unambiguous",1.377,1
"10",34,"unambiguous",1.278,1
"10",35,"unambiguous",0.984,1
"10",36,"implicature",1.198,1
"10",37,"implicature",0.859,1
"10",38,"unambiguous",1.401,1
"10",39,"implicature",1.011,1
"10",40,"unambiguous",1.147,1
"10",41,"implicature",1.188,1
"10",42,"implicature",1.579,1
"10",43,"unambiguous",1.606,1
"10",44,"unambiguous",1.366,1
"10",45,"implicature",1.105,1
"10",46,"unambiguous",1.182,1
"10",47,"implicature",1.645,1
"10",48,"implicature",0.939,1
"10",49,"unambiguous",1.049,1
"10",50,"unambiguous",1.307,1
"10",51,"implicature",1.172,1
"10",52,"unambiguous",1.1,1
"10",53,"unambiguous",1.384,1
"10",54,"implicature",1.067,1
"10",55,"implicature",0.791,1
"10",56,"implicature",1.26,1
"10",57,"implicature",0.86,1
"10",58,"unambiguous",1.707,1
"10",59,"implicature",1.406,1
"10",60,"unambiguous",0.903,1
"10",61,"unambiguous",1.167,1
"10",62,"implicature",0.739,1
"10",63,"unambiguous",1.325,1
"10",64,"unambiguous",0.986,1
"10",65,"unambiguous",1.07,1
"10",66,"implicature",1.236,1
"10",67,"implicature",1.396,1
"10",68,"implicature",1.393,1
"10",69,"unambiguous",2.193,1
"10",70,"unambiguous",1.762,1
"10",71,"unambiguous",1.154,1
"10",72,"implicature",1.481,1
"10",73,"implicature",1.17,1
"10",74,"unambiguous",0.973,1
"10",75,"unambiguous",0.956,1
"10",76,"unambiguous",1.646,1
"10",77,"unambiguous",1.571,1
"10",80,"unambiguous",1.232,1
"10",82,"unambiguous",1.34,1
"10",83,"unambiguous",1.597,1
"10",84,"implicature",0.911,1
"10",86,"unambiguous",1.757,1
"10",87,"unambiguous",1.084,1
"10",88,"unambiguous",1.11,1
"10",89,"implicature",2.22,1
"10",90,"implicature",2.277,1
"10",91,"implicature",1.676,1
"10",92,"unambiguous",1.97,1
"10",94,"implicature",0.99,1
"10",93,"implicature",1.307,1
"10",96,"implicature",1.138,0
"10",95,"implicature",1.012,1
"10",98,"implicature",1.554,1
"10",99,"unambiguous",1.308,1
"10",100,"unambiguous",1.396,1
"10",101,"unambiguous",1.291,1
"10",102,"implicature",1.685,1
"10",103,"implicature",1.316,1
"10",104,"implicature",1.324,1
"10",105,"unambiguous",1.026,1
"10",106,"implicature",0.99,0
"10",107,"implicature",2.011,1
"10",108,"unambiguous",2.442,1
"10",109,"unambiguous",1.578,1
"10",110,"implicature",2.294,1
"10",111,"unambiguous",1.592,1
"10",112,"implicature",1.539,1
"10",113,"implicature",0.95,1
"10",114,"unambiguous",0.746,0
"10",115,"unambiguous",1.808,1
"10",117,"unambiguous",1.765,1
"10",118,"unambiguous",2.334,1
"10",119,"unambiguous",1.88,1
"10",120,"unambiguous",1.42,1
"11",1,"implicature",0.981,1
"11",2,"implicature",0.803,1
"11",3,"implicature",0.733,1
"11",4,"implicature",0.702,1
"11",5,"unambiguous",0.934,1
"11",6,"unambiguous",0.757,1
"11",7,"implicature",0.99,1
"11",8,"implicature",0.71,1
"11",9,"unambiguous",0.87,1
"11",10,"unambiguous",0.854,1
"11",11,"unambiguous",0.653,1
"11",12,"implicature",0.735,1
"11",13,"implicature",0.733,0
"11",14,"unambiguous",0.662,1
"11",15,"unambiguous",0.78,1
"11",16,"unambiguous",0.662,1
"11",17,"unambiguous",0.678,1
"11",18,"unambiguous",0.63,1
"11",19,"unambiguous",0.58,1
"11",20,"unambiguous",0.622,1
"11",21,"unambiguous",0.774,1
"11",22,"implicature",0.797,1
"11",23,"unambiguous",0.749,1
"11",24,"implicature",0.654,1
"11",25,"unambiguous",0.692,1
"11",26,"unambiguous",0.758,1
"11",27,"implicature",0.926,1
"11",28,"unambiguous",0.702,1
"11",29,"unambiguous",0.687,1
"11",30,"unambiguous",0.597,1
"11",31,"unambiguous",0.716,1
"11",32,"unambiguous",0.662,1
"11",33,"implicature",0.886,0
"11",34,"unambiguous",0.589,1
"11",35,"implicature",0.685,1
"11",36,"implicature",0.694,0
"11",37,"unambiguous",0.751,1
"11",38,"unambiguous",0.613,1
"11",39,"unambiguous",0.685,1
"11",40,"implicature",0.759,1
"11",41,"unambiguous",0.637,1
"11",42,"implicature",0.774,1
"11",43,"unambiguous",0.661,1
"11",44,"implicature",0.758,1
"11",45,"implicature",0.742,1
"11",46,"unambiguous",0.797,1
"11",47,"implicature",0.637,1
"11",48,"implicature",0.693,1
"11",49,"unambiguous",0.782,1
"11",50,"implicature",0.727,1
"11",51,"implicature",0.654,0
"11",52,"implicature",0.75,1
"11",53,"implicature",0.941,0
"11",54,"unambiguous",0.942,1
"11",55,"implicature",0.613,0
"11",56,"unambiguous",0.798,1
"11",57,"unambiguous",0.621,1
"11",58,"implicature",0.798,1
"11",59,"unambiguous",0.686,1
"11",60,"unambiguous",0.686,1
"11",61,"implicature",0.613,0
"11",62,"implicature",0.647,0
"11",63,"unambiguous",0.557,1
"11",64,"unambiguous",0.566,1
"11",65,"unambiguous",0.652,1
"11",66,"unambiguous",0.567,1
"11",67,"implicature",0.534,0
"11",68,"implicature",0.597,1
"11",69,"implicature",0.622,0
"11",70,"unambiguous",0.719,1
"11",71,"unambiguous",0.63,1
"11",72,"implicature",0.559,1
"11",73,"implicature",0.652,0
"11",74,"implicature",0.638,0
"11",75,"unambiguous",0.557,1
"11",76,"implicature",0.829,0
"11",77,"unambiguous",0.621,1
"11",78,"implicature",0.573,0
"11",79,"unambiguous",0.597,1
"11",80,"implicature",0.604,0
"11",81,"unambiguous",0.606,1
"11",82,"implicature",0.598,0
"11",83,"unambiguous",0.652,1
"11",84,"unambiguous",0.711,1
"11",85,"implicature",0.588,0
"11",86,"implicature",0.533,0
"11",87,"implicature",0.566,0
"11",88,"unambiguous",0.598,1
"11",89,"unambiguous",0.565,1
"11",90,"unambiguous",0.524,1
"11",91,"implicature",0.589,0
"11",92,"implicature",0.589,0
"11",93,"implicature",0.685,1
"11",94,"implicature",0.685,1
"11",95,"unambiguous",0.685,1
"11",96,"implicature",0.693,0
"11",97,"implicature",0.734,0
"11",98,"implicature",0.693,1
"11",99,"unambiguous",0.598,1
"11",100,"implicature",0.622,1
"11",101,"implicature",0.629,0
"11",102,"implicature",0.662,0
"11",103,"implicature",0.606,0
"11",104,"implicature",0.82,0
"11",105,"implicature",0.71,1
"11",106,"implicature",0.782,1
"11",107,"unambiguous",0.661,1
"11",108,"unambiguous",0.559,1
"11",109,"unambiguous",0.565,1
"11",110,"unambiguous",0.543,1
"11",111,"unambiguous",0.613,1
"11",112,"implicature",0.565,0
"11",113,"unambiguous",0.55,1
"11",114,"unambiguous",0.621,0
"11",115,"implicature",1.158,0
"11",116,"unambiguous",0.908,1
"11",117,"implicature",0.678,0
"11",118,"unambiguous",0.709,1
"11",119,"implicature",0.604,0
"11",120,"implicature",0.759,1
"12",2,"implicature",0.723,1
"12",1,"implicature",0.836,1
"12",3,"unambiguous",1.01,1
"12",4,"unambiguous",0.867,1
"12",5,"implicature",1.113,1
"12",6,"unambiguous",1.002,1
"12",7,"unambiguous",0.955,1
"12",8,"unambiguous",0.953,1
"12",9,"unambiguous",0.78,1
"12",10,"unambiguous",0.571,1
"12",11,"implicature",0.691,0
"12",12,"implicature",0.985,1
"12",13,"unambiguous",1.048,1
"12",14,"unambiguous",0.804,1
"12",15,"unambiguous",0.818,1
"12",16,"implicature",0.746,1
"12",17,"implicature",1.091,1
"12",18,"unambiguous",0.852,1
"12",19,"implicature",0.712,0
"12",20,"unambiguous",0.898,1
"12",21,"implicature",0.794,0
"12",22,"unambiguous",1.129,1
"12",23,"implicature",0.666,1
"12",24,"implicature",0.635,1
"12",25,"implicature",0.546,1
"12",26,"implicature",0.922,1
"12",27,"implicature",0.833,1
"12",28,"unambiguous",0.705,1
"12",29,"implicature",0.642,0
"12",30,"unambiguous",0.795,1
"12",31,"unambiguous",0.979,1
"12",32,"unambiguous",0.722,1
"12",33,"implicature",0.626,1
"12",34,"unambiguous",0.667,1
"12",35,"implicature",0.746,0
"12",36,"unambiguous",0.651,1
"12",37,"implicature",0.554,1
"12",38,"implicature",0.524,1
"12",39,"unambiguous",1.002,1
"12",40,"implicature",0.602,1
"12",41,"unambiguous",0.641,1
"12",42,"implicature",1.623,1
"12",43,"implicature",0.595,1
"12",44,"unambiguous",0.74,1
"12",45,"implicature",0.708,1
"12",46,"unambiguous",0.691,1
"12",47,"implicature",0.659,1
"12",48,"implicature",0.538,1
"12",49,"unambiguous",0.635,1
"12",50,"implicature",0.579,1
"12",51,"unambiguous",0.602,1
"12",52,"implicature",0.675,1
"12",53,"unambiguous",0.812,1
"12",54,"implicature",0.549,1
"12",55,"implicature",0.579,0
"12",56,"implicature",0.684,0
"12",57,"implicature",0.943,1
"12",58,"implicature",0.514,1
"12",59,"implicature",0.642,1
"12",61,"implicature",0.627,1
"12",60,"unambiguous",0.571,0
"12",62,"unambiguous",0.594,1
"12",63,"unambiguous",0.708,1
"12",64,"unambiguous",0.843,1
"12",65,"implicature",0.889,1
"12",66,"implicature",0.995,0
"12",67,"unambiguous",0.923,1
"12",68,"implicature",0.555,1
"12",69,"unambiguous",0.627,1
"12",72,"unambiguous",0.783,1
"12",70,"implicature",0.577,1
"12",71,"unambiguous",1.289,1
"12",73,"implicature",0.634,0
"12",74,"unambiguous",0.914,1
"12",75,"unambiguous",0.755,1
"12",76,"unambiguous",0.771,1
"12",77,"implicature",0.65,1
"12",78,"unambiguous",0.635,1
"12",79,"unambiguous",0.643,1
"12",80,"implicature",0.883,1
"12",81,"unambiguous",0.867,1
"12",82,"implicature",0.873,1
"12",83,"unambiguous",0.659,1
"12",84,"unambiguous",0.882,1
"12",85,"implicature",0.725,0
"12",86,"implicature",0.931,1
"12",87,"unambiguous",0.747,1
"12",88,"implicature",0.7,1
"12",89,"unambiguous",0.618,1
"12",90,"implicature",0.877,1
"12",91,"unambiguous",0.633,1
"12",92,"implicature",0.556,0
"12",93,"unambiguous",0.81,0
"12",94,"implicature",0.964,1
"12",95,"implicature",0.883,1
"12",96,"implicature",0.794,1
"12",97,"implicature",1.068,0
"12",98,"unambiguous",0.676,1
"12",99,"implicature",0.866,1
"12",100,"unambiguous",0.779,1
"12",101,"implicature",0.61,0
"12",102,"unambiguous",0.626,1
"12",103,"unambiguous",0.827,1
"12",104,"implicature",0.659,1
"12",105,"unambiguous",0.86,0
"12",106,"unambiguous",0.754,0
"12",107,"unambiguous",0.779,1
"12",108,"unambiguous",0.658,1
"12",109,"implicature",0.609,1
"12",110,"unambiguous",0.674,1
"12",111,"implicature",0.706,1
"12",112,"implicature",0.501,1
"12",113,"implicature",0.484,1
"12",114,"unambiguous",0.611,1
"12",115,"implicature",0.667,1
"12",116,"unambiguous",0.675,1
"12",117,"unambiguous",0.594,1
"12",118,"implicature",0.747,1
"12",119,"unambiguous",0.907,0
"12",120,"unambiguous",0.852,1
"13",1,"implicature",1.206,1
"13",2,"unambiguous",1.392,1
"13",3,"implicature",1.167,1
"13",4,"unambiguous",0.994,1
"13",5,"implicature",0.986,1
"13",6,"unambiguous",1.531,1
"13",7,"unambiguous",0.998,1
"13",8,"unambiguous",1.005,1
"13",9,"implicature",1.02,1
"13",10,"unambiguous",1.333,0
"13",11,"implicature",1.279,1
"13",12,"unambiguous",1.025,1
"13",13,"implicature",1.208,1
"13",14,"implicature",0.824,1
"13",15,"implicature",1.369,1
"13",16,"implicature",1.317,1
"13",17,"unambiguous",1.225,1
"13",18,"implicature",1.26,1
"13",19,"implicature",0.737,1
"13",20,"unambiguous",1.109,1
"13",21,"unambiguous",0.9,1
"13",22,"implicature",0.902,1
"13",24,"unambiguous",0.942,1
"13",23,"implicature",1.072,1
"13",25,"unambiguous",1.06,1
"13",26,"implicature",1.69,1
"13",27,"unambiguous",0.945,1
"13",28,"implicature",0.82,1
"13",29,"implicature",0.815,1
"13",30,"unambiguous",1.244,1
"13",31,"unambiguous",0.958,1
"13",32,"implicature",1.322,1
"13",33,"implicature",0.864,1
"13",34,"implicature",0.851,1
"13",35,"implicature",0.808,1
"13",36,"implicature",0.705,1
"13",37,"unambiguous",1.229,1
"13",38,"implicature",1.059,1
"13",39,"unambiguous",1.118,1
"13",40,"implicature",0.961,1
"13",41,"implicature",0.684,1
"13",42,"implicature",0.677,1
"13",43,"implicature",0.697,1
"13",44,"implicature",0.634,1
"13",45,"implicature",1.067,1
"13",46,"implicature",0.754,1
"13",47,"implicature",0.75,1
"13",48,"unambiguous",0.968,1
"13",49,"unambiguous",1.169,1
"13",50,"implicature",1.666,1
"13",51,"unambiguous",0.884,1
"13",52,"unambiguous",1.062,1
"13",53,"implicature",1.227,1
"13",54,"unambiguous",0.988,1
"13",55,"unambiguous",1.119,1
"13",56,"implicature",1.165,1
"13",57,"unambiguous",0.782,1
"13",58,"implicature",0.987,1
"13",59,"implicature",0.673,1
"13",60,"unambiguous",0.833,1
"13",61,"implicature",1.043,1
"13",62,"implicature",0.66,1
"13",63,"unambiguous",1.023,1
"13",64,"implicature",0.976,1
"13",65,"unambiguous",0.847,1
"13",66,"unambiguous",0.887,1
"13",67,"unambiguous",0.819,1
"13",68,"implicature",1.294,1
"13",69,"unambiguous",0.936,1
"13",70,"unambiguous",0.902,1
"13",71,"unambiguous",0.899,0
"13",72,"implicature",0.804,1
"13",73,"unambiguous",0.861,1
"13",74,"unambiguous",0.863,1
"13",75,"implicature",1.006,1
"13",76,"unambiguous",0.713,1
"13",77,"unambiguous",0.838,1
"13",78,"implicature",1.06,1
"13",79,"implicature",0.753,1
"13",80,"unambiguous",1.056,1
"13",81,"implicature",0.942,1
"13",82,"unambiguous",0.999,1
"13",83,"implicature",0.997,1
"13",84,"unambiguous",0.891,1
"13",85,"unambiguous",0.982,1
"13",86,"implicature",1.349,1
"13",87,"implicature",1.063,1
"13",88,"unambiguous",0.804,1
"13",89,"unambiguous",0.847,1
"13",90,"implicature",1.154,1
"13",91,"implicature",0.846,1
"13",92,"unambiguous",0.944,1
"13",93,"implicature",0.889,1
"13",94,"unambiguous",0.884,1
"13",95,"unambiguous",0.667,1
"13",96,"unambiguous",0.786,1
"13",97,"unambiguous",0.863,1
"13",98,"unambiguous",0.698,1
"13",99,"implicature",0.741,1
"13",100,"implicature",0.905,1
"13",101,"implicature",0.699,1
"13",102,"unambiguous",1.04,1
"13",103,"unambiguous",0.843,1
"13",104,"implicature",0.726,0
"13",105,"implicature",1.183,1
"13",106,"implicature",1.109,1
"13",107,"unambiguous",0.743,1
"13",108,"unambiguous",1.055,1
"13",109,"unambiguous",0.687,1
"13",110,"unambiguous",0.777,1
"13",111,"unambiguous",0.759,1
"13",112,"implicature",0.66,0
"13",113,"unambiguous",0.871,1
"13",114,"implicature",0.905,0
"13",115,"implicature",1.317,0
"13",116,"unambiguous",0.937,1
"13",117,"implicature",0.909,1
"13",118,"unambiguous",0.849,1
"13",119,"unambiguous",0.809,1
"13",120,"unambiguous",1.064,1
"14",1,"unambiguous",1.582,1
"14",2,"implicature",1.076,1
"14",3,"unambiguous",0.984,1
"14",4,"implicature",0.968,1
"14",5,"implicature",0.996,1
"14",6,"implicature",1.029,1
"14",7,"unambiguous",0.792,1
"14",8,"unambiguous",0.799,1
"14",9,"unambiguous",0.721,1
"14",10,"unambiguous",0.797,1
"14",11,"unambiguous",0.873,1
"14",12,"implicature",0.681,1
"14",13,"implicature",0.647,1
"14",14,"implicature",0.647,1
"14",15,"unambiguous",0.672,0
"14",16,"unambiguous",0.833,1
"14",17,"unambiguous",0.705,1
"14",18,"implicature",0.662,1
"14",19,"implicature",0.596,1
"14",20,"unambiguous",0.647,1
"14",21,"unambiguous",0.687,1
"14",22,"unambiguous",0.666,1
"14",23,"implicature",0.868,0
"14",24,"unambiguous",0.744,1
"14",25,"unambiguous",0.708,1
"14",26,"unambiguous",0.647,1
"14",27,"unambiguous",0.705,1
"14",28,"implicature",0.743,1
"14",29,"unambiguous",0.734,1
"14",30,"unambiguous",0.689,1
"14",31,"implicature",0.639,1
"14",32,"implicature",0.676,1
"14",33,"unambiguous",0.873,1
"14",34,"implicature",0.692,0
"14",35,"unambiguous",0.804,1
"14",36,"unambiguous",0.849,1
"14",37,"implicature",0.703,0
"14",38,"implicature",1.02,1
"14",39,"implicature",0.628,1
"14",40,"implicature",0.672,1
"14",41,"implicature",0.606,1
"14",42,"implicature",0.699,1
"14",43,"unambiguous",0.79,1
"14",44,"unambiguous",0.658,1
"14",45,"implicature",0.574,1
"14",46,"implicature",0.569,1
"14",47,"implicature",0.593,1
"14",49,"implicature",0.839,1
"14",50,"implicature",0.637,1
"14",51,"implicature",0.717,1
"14",52,"implicature",0.648,1
"14",53,"unambiguous",0.548,0
"14",54,"implicature",0.745,1
"14",55,"implicature",0.666,0
"14",56,"implicature",0.766,1
"14",57,"implicature",0.506,1
"14",58,"implicature",0.967,1
"14",59,"unambiguous",0.563,0
"14",60,"unambiguous",0.721,1
"14",61,"unambiguous",0.783,1
"14",62,"unambiguous",0.839,1
"14",63,"implicature",0.62,1
"14",64,"implicature",0.496,1
"14",65,"unambiguous",0.704,1
"14",66,"implicature",0.494,1
"14",67,"implicature",0.581,0
"14",68,"unambiguous",0.79,1
"14",69,"implicature",0.851,1
"14",70,"unambiguous",0.844,1
"14",71,"implicature",0.539,1
"14",72,"implicature",0.719,1
"14",73,"unambiguous",0.72,1
"14",74,"implicature",0.621,1
"14",75,"unambiguous",0.646,1
"14",76,"unambiguous",0.866,1
"14",77,"unambiguous",0.887,0
"14",78,"unambiguous",0.637,1
"14",79,"implicature",0.749,1
"14",80,"implicature",0.582,1
"14",81,"unambiguous",0.696,1
"14",82,"unambiguous",0.543,0
"14",83,"implicature",0.736,1
"14",84,"unambiguous",0.83,0
"14",85,"implicature",0.817,1
"14",86,"unambiguous",0.606,1
"14",87,"implicature",0.67,1
"14",88,"unambiguous",0.657,1
"14",89,"implicature",0.637,1
"14",90,"unambiguous",2.229,1
"14",91,"unambiguous",0.865,1
"14",92,"implicature",0.525,1
"14",93,"unambiguous",0.637,1
"14",94,"unambiguous",1.033,1
"14",95,"unambiguous",0.492,0
"14",96,"unambiguous",0.7,1
"14",97,"implicature",0.68,0
"14",98,"unambiguous",0.874,1
"14",99,"unambiguous",0.597,1
"14",100,"unambiguous",0.679,1
"14",101,"implicature",1.016,1
"14",102,"implicature",0.521,1
"14",103,"implicature",0.571,1
"14",104,"unambiguous",0.62,1
"14",106,"unambiguous",0.64,1
"14",105,"unambiguous",0.724,1
"14",107,"unambiguous",0.738,1
"14",108,"unambiguous",0.755,1
"14",109,"unambiguous",0.695,1
"14",110,"unambiguous",0.833,1
"14",111,"implicature",0.534,1
"14",112,"implicature",0.603,0
"14",113,"implicature",0.782,1
"14",114,"implicature",0.518,1
"14",115,"implicature",0.587,0
"14",116,"implicature",0.805,1
"14",117,"implicature",0.567,1
"14",118,"implicature",0.524,1
"14",119,"implicature",0.557,0
"14",120,"unambiguous",0.625,1
"15",1,"implicature",1.031,1
"15",2,"unambiguous",1.228,1
"15",3,"unambiguous",0.758,1
"15",4,"implicature",1.004,1
"15",5,"implicature",1.1,1
"15",6,"implicature",0.737,1
"15",7,"unambiguous",0.796,1
"15",8,"unambiguous",0.932,1
"15",9,"implicature",0.949,1
"15",10,"implicature",0.829,1
"15",11,"unambiguous",1.107,1
"15",12,"unambiguous",0.72,1
"15",13,"unambiguous",1.079,1
"15",14,"unambiguous",0.771,1
"15",15,"unambiguous",0.822,1
"15",16,"unambiguous",0.831,1
"15",17,"implicature",1.052,1
"15",18,"unambiguous",1.044,1
"15",19,"implicature",0.901,1
"15",20,"unambiguous",0.948,1
"15",21,"implicature",0.884,1
"15",22,"implicature",0.996,1
"15",23,"implicature",0.82,1
"15",24,"unambiguous",0.885,1
"15",25,"unambiguous",0.932,0
"15",26,"implicature",0.981,1
"15",27,"implicature",0.78,1
"15",28,"implicature",1.004,1
"15",29,"unambiguous",0.917,1
"15",30,"unambiguous",0.965,1
"15",31,"implicature",1.011,1
"15",32,"implicature",0.781,1
"15",33,"unambiguous",1.069,1
"15",34,"unambiguous",0.933,1
"15",35,"implicature",0.849,1
"15",36,"implicature",1.148,0
"15",37,"unambiguous",1.466,1
"15",38,"unambiguous",0.974,1
"15",39,"implicature",0.716,0
"15",40,"unambiguous",0.949,1
"15",41,"implicature",0.836,1
"15",42,"unambiguous",0.842,1
"15",43,"unambiguous",1.142,1
"15",44,"unambiguous",0.651,1
"15",45,"implicature",0.684,0
"15",46,"unambiguous",1.109,1
"15",47,"unambiguous",0.885,1
"15",48,"unambiguous",0.893,1
"15",49,"implicature",1.02,1
"15",50,"implicature",0.852,1
"15",51,"implicature",1.165,1
"15",52,"implicature",0.677,1
"15",53,"unambiguous",0.986,1
"15",54,"implicature",0.9,1
"15",55,"unambiguous",0.716,1
"15",56,"unambiguous",0.86,0
"15",57,"implicature",0.996,1
"15",58,"unambiguous",0.756,0
"15",59,"implicature",1.201,1
"15",60,"implicature",0.927,1
"15",61,"implicature",0.842,1
"15",62,"unambiguous",0.795,1
"15",63,"implicature",0.79,1
"15",64,"implicature",0.772,1
"15",66,"implicature",0.988,1
"15",65,"unambiguous",0.933,1
"15",67,"unambiguous",0.932,1
"15",68,"implicature",0.82,1
"15",69,"unambiguous",0.772,1
"15",70,"implicature",1.148,1
"15",71,"unambiguous",0.805,1
"15",72,"implicature",0.92,1
"15",73,"implicature",0.714,1
"15",74,"implicature",0.684,1
"15",75,"unambiguous",1.021,1
"15",76,"implicature",0.844,1
"15",77,"unambiguous",0.716,1
"15",78,"implicature",0.777,1
"15",79,"implicature",1.013,0
"15",80,"unambiguous",0.724,1
"15",81,"unambiguous",0.836,1
"15",82,"unambiguous",1.372,1
"15",83,"implicature",1.267,1
"15",86,"implicature",0.636,1
"15",87,"unambiguous",0.78,1
"15",85,"implicature",0.936,1
"15",84,"implicature",1.04,0
"15",89,"unambiguous",0.766,1
"15",93,"implicature",0.74,0
"15",90,"implicature",0.948,1
"15",88,"implicature",1.092,1
"15",92,"implicature",1.036,1
"15",91,"implicature",0.764,1
"15",95,"unambiguous",0.678,1
"15",94,"implicature",0.76,1
"15",96,"unambiguous",0.733,0
"15",97,"implicature",0.788,0
"15",98,"implicature",0.756,1
"15",99,"unambiguous",0.988,1
"15",100,"implicature",1.004,1
"15",101,"unambiguous",0.764,1
"15",102,"unambiguous",0.86,0
"15",103,"unambiguous",0.964,1
"15",104,"unambiguous",0.892,1
"15",105,"unambiguous",1.108,1
"15",106,"implicature",0.892,1
"15",107,"implicature",0.812,1
"15",108,"implicature",0.777,0
"15",109,"unambiguous",0.821,1
"15",110,"unambiguous",1.056,1
"15",111,"unambiguous",0.849,0
"15",112,"implicature",0.7,1
"15",113,"unambiguous",0.893,1
"15",114,"implicature",0.848,0
"15",116,"unambiguous",1.164,1
"15",115,"unambiguous",0.741,0
"15",117,"implicature",0.964,1
"15",118,"unambiguous",0.716,1
"15",119,"unambiguous",0.748,1
"15",120,"unambiguous",0.908,1
"16",2,"unambiguous",0.801,1
"16",3,"implicature",0.878,0
"16",4,"unambiguous",1.198,1
"16",5,"unambiguous",0.778,1
"16",6,"unambiguous",0.994,1
"16",7,"unambiguous",0.782,1
"16",8,"unambiguous",0.893,1
"16",9,"unambiguous",0.741,1
"16",10,"implicature",1.205,1
"16",11,"implicature",1.233,1
"16",12,"unambiguous",1.388,1
"16",13,"unambiguous",0.981,1
"16",14,"unambiguous",0.589,1
"16",15,"unambiguous",0.704,1
"16",16,"implicature",1.143,1
"16",17,"unambiguous",0.855,1
"16",18,"implicature",1.147,1
"16",19,"unambiguous",1.144,1
"16",20,"implicature",1.033,1
"16",21,"implicature",0.743,1
"16",22,"unambiguous",0.863,1
"16",23,"unambiguous",0.714,1
"16",24,"implicature",0.886,1
"16",25,"unambiguous",1.044,1
"16",26,"implicature",0.815,0
"16",27,"implicature",1.296,1
"16",28,"unambiguous",0.846,1
"16",29,"implicature",0.858,1
"16",30,"unambiguous",0.895,1
"16",31,"implicature",0.705,1
"16",32,"implicature",0.633,1
"16",33,"unambiguous",0.94,1
"16",34,"implicature",0.565,1
"16",35,"implicature",0.738,1
"16",36,"unambiguous",0.855,1
"16",37,"unambiguous",0.998,1
"16",38,"implicature",0.562,1
"16",39,"implicature",0.774,1
"16",40,"implicature",0.659,1
"16",41,"unambiguous",0.942,1
"16",42,"implicature",0.974,1
"16",43,"unambiguous",1.062,1
"16",44,"unambiguous",1.107,1
"16",45,"unambiguous",0.832,1
"16",46,"implicature",0.727,1
"16",47,"implicature",0.778,1
"16",48,"implicature",0.546,1
"16",49,"unambiguous",0.886,1
"16",50,"implicature",0.795,1
"16",51,"implicature",0.645,1
"16",52,"unambiguous",0.682,1
"16",53,"implicature",0.535,1
"16",54,"implicature",0.838,1
"16",55,"unambiguous",1.021,1
"16",56,"unambiguous",0.803,1
"16",57,"implicature",1.425,1
"16",58,"implicature",0.747,1
"16",59,"unambiguous",0.594,0
"16",60,"unambiguous",1.007,1
"16",61,"unambiguous",0.736,1
"16",62,"unambiguous",0.688,1
"16",63,"unambiguous",0.816,1
"16",64,"unambiguous",1.018,1
"16",65,"unambiguous",0.804,1
"16",66,"implicature",1.021,1
"16",67,"implicature",0.562,1
"16",68,"unambiguous",0.754,1
"16",69,"unambiguous",0.83,1
"16",70,"implicature",0.605,1
"16",71,"unambiguous",0.906,1
"16",72,"implicature",1.219,1
"16",73,"implicature",0.805,1
"16",74,"unambiguous",0.864,1
"16",75,"implicature",0.783,1
"16",76,"implicature",0.56,1
"16",77,"implicature",0.593,1
"16",78,"implicature",0.694,1
"16",79,"unambiguous",0.918,1
"16",80,"implicature",0.699,1
"16",81,"unambiguous",0.843,1
"16",82,"implicature",0.773,1
"16",83,"implicature",0.628,1
"16",84,"unambiguous",0.638,1
"16",85,"unambiguous",0.718,1
"16",86,"implicature",0.669,1
"16",87,"unambiguous",0.975,1
"16",88,"implicature",0.751,1
"16",89,"unambiguous",0.635,1
"16",90,"unambiguous",0.883,1
"16",91,"implicature",0.759,1
"16",92,"implicature",0.561,1
"16",93,"implicature",0.528,1
"16",94,"unambiguous",0.796,1
"16",95,"implicature",1.2,1
"16",96,"implicature",0.784,1
"16",97,"unambiguous",0.759,1
"16",98,"unambiguous",0.869,1
"16",99,"implicature",1.228,1
"16",100,"unambiguous",0.603,1
"16",101,"unambiguous",0.742,1
"16",102,"implicature",1.162,1
"16",103,"implicature",0.515,1
"16",104,"implicature",0.558,1
"16",105,"unambiguous",0.649,1
"16",106,"unambiguous",0.868,1
"16",107,"unambiguous",0.649,1
"16",108,"unambiguous",0.852,1
"16",109,"implicature",0.857,1
"16",110,"implicature",0.546,1
"16",111,"unambiguous",0.712,1
"16",112,"implicature",0.496,1
"16",113,"unambiguous",0.534,1
"16",114,"implicature",0.639,1
"16",115,"implicature",0.588,1
"16",116,"implicature",0.564,1
"16",117,"implicature",0.603,1
"16",118,"implicature",0.468,1
"16",119,"implicature",0.751,1
"16",120,"unambiguous",0.849,1
"17",1,"unambiguous",1.195,1
"17",2,"implicature",1.025,1
"17",3,"unambiguous",0.929,1
"17",4,"unambiguous",0.915,1
"17",5,"implicature",0.985,1
"17",6,"unambiguous",0.95,1
"17",7,"implicature",1.154,1
"17",8,"implicature",1.086,1
"17",9,"implicature",0.914,1
"17",10,"unambiguous",1.086,1
"17",11,"implicature",0.915,1
"17",12,"unambiguous",1.008,1
"17",13,"unambiguous",1.024,1
"17",14,"implicature",0.915,1
"17",15,"unambiguous",0.92,1
"17",16,"implicature",0.836,1
"17",17,"implicature",1.169,0
"17",18,"implicature",1.067,1
"17",19,"unambiguous",1.228,1
"17",20,"implicature",0.92,1
"17",21,"implicature",1.008,1
"17",22,"unambiguous",1.056,1
"17",23,"unambiguous",0.901,1
"17",24,"unambiguous",0.959,1
"17",25,"implicature",0.916,1
"17",26,"implicature",0.837,1
"17",27,"implicature",0.846,1
"17",28,"implicature",1.068,1
"17",29,"unambiguous",1.007,1
"17",30,"implicature",0.862,1
"17",31,"unambiguous",0.827,1
"17",32,"unambiguous",0.87,1
"17",34,"unambiguous",0.891,1
"17",36,"implicature",0.798,1
"17",33,"unambiguous",0.901,1
"17",35,"implicature",0.925,1
"17",37,"unambiguous",0.937,1
"17",38,"unambiguous",0.857,1
"17",39,"unambiguous",0.939,1
"17",40,"unambiguous",0.853,1
"17",41,"implicature",0.935,1
"17",42,"implicature",0.91,1
"17",45,"unambiguous",0.866,1
"17",43,"implicature",0.74,0
"17",46,"unambiguous",0.896,1
"17",47,"unambiguous",1.018,1
"17",44,"implicature",1.307,1
"17",48,"unambiguous",1.004,1
"17",49,"implicature",0.925,1
"17",50,"implicature",0.974,1
"17",51,"unambiguous",0.954,1
"17",52,"unambiguous",0.89,1
"17",53,"implicature",0.846,1
"17",54,"implicature",0.954,1
"17",59,"implicature",0.942,1
"17",57,"unambiguous",0.836,1
"17",56,"implicature",1.103,1
"17",58,"implicature",0.818,1
"17",55,"unambiguous",0.975,1
"17",60,"unambiguous",0.842,1
"17",61,"unambiguous",0.885,1
"17",62,"implicature",0.998,1
"17",63,"unambiguous",0.788,1
"17",64,"unambiguous",0.911,1
"17",67,"implicature",0.989,1
"17",66,"implicature",0.979,1
"17",65,"implicature",1.155,1
"17",68,"unambiguous",0.842,1
"17",69,"unambiguous",0.812,1
"17",70,"implicature",0.801,1
"17",71,"implicature",0.789,0
"17",72,"implicature",1.399,1
"17",73,"unambiguous",0.901,1
"17",74,"implicature",1.038,1
"17",77,"unambiguous",0.808,1
"17",75,"implicature",0.829,1
"17",76,"unambiguous",0.867,1
"17",78,"unambiguous",0.964,1
"17",79,"implicature",0.72,1
"17",80,"implicature",0.754,1
"17",81,"unambiguous",0.847,1
"17",82,"implicature",0.73,1
"17",83,"implicature",0.72,1
"17",84,"implicature",0.931,1
"17",85,"implicature",0.92,1
"17",86,"implicature",0.92,1
"17",87,"unambiguous",1.028,1
"17",88,"unambiguous",0.93,1
"17",89,"implicature",0.729,1
"17",90,"unambiguous",0.846,1
"17",91,"unambiguous",0.768,1
"17",92,"unambiguous",0.753,1
"17",93,"unambiguous",0.784,1
"17",94,"implicature",0.749,1
"17",95,"implicature",0.875,1
"17",96,"implicature",0.851,1
"17",97,"unambiguous",0.865,1
"17",98,"implicature",0.935,1
"17",99,"unambiguous",0.89,1
"17",100,"unambiguous",0.828,1
"17",101,"implicature",0.847,1
"17",102,"unambiguous",0.651,1
"17",103,"unambiguous",0.798,1
"17",104,"implicature",0.92,1
"17",105,"implicature",1.19,1
"17",106,"unambiguous",0.798,1
"17",107,"unambiguous",0.793,1
"17",108,"unambiguous",0.72,1
"17",109,"implicature",0.715,1
"17",110,"unambiguous",0.817,1
"17",111,"unambiguous",0.818,1
"17",113,"unambiguous",0.661,1
"17",114,"implicature",0.73,1
"17",115,"unambiguous",0.612,1
"17",112,"unambiguous",0.758,1
"17",116,"implicature",0.959,1
"17",117,"implicature",0.677,1
"17",118,"unambiguous",0.76,1
"17",119,"implicature",0.624,1
"17",120,"implicature",0.964,1
"18",1,"unambiguous",1.83,1
"18",2,"implicature",0.758,1
"18",3,"implicature",0.966,1
"18",4,"implicature",0.886,1
"18",5,"unambiguous",0.76,1
"18",6,"implicature",0.689,0
"18",7,"implicature",0.814,0
"18",8,"implicature",1.433,1
"18",9,"implicature",0.818,1
"18",10,"unambiguous",0.91,1
"18",11,"unambiguous",0.741,1
"18",12,"unambiguous",0.957,1
"18",13,"unambiguous",0.807,1
"18",14,"unambiguous",0.818,1
"18",15,"implicature",0.806,0
"18",16,"unambiguous",1.057,1
"18",17,"unambiguous",0.649,1
"18",18,"implicature",0.751,0
"18",19,"implicature",0.888,1
"18",20,"unambiguous",0.725,1
"18",21,"implicature",0.893,1
"18",22,"implicature",0.775,1
"18",23,"implicature",0.914,1
"18",24,"implicature",0.809,1
"18",25,"unambiguous",0.83,1
"18",26,"unambiguous",0.945,1
"18",27,"implicature",0.769,1
"18",28,"unambiguous",1.05,1
"18",29,"unambiguous",0.803,1
"18",30,"unambiguous",0.989,1
"18",31,"unambiguous",0.854,1
"18",32,"implicature",1.146,1
"18",33,"implicature",0.861,1
"18",34,"implicature",0.782,1
"18",35,"unambiguous",0.754,1
"18",36,"implicature",0.901,1
"18",37,"implicature",0.812,0
"18",38,"unambiguous",1.158,1
"18",39,"unambiguous",0.85,1
"18",40,"implicature",1.134,1
"18",41,"unambiguous",0.986,1
"18",42,"implicature",0.782,1
"18",43,"unambiguous",0.762,1
"18",44,"implicature",0.97,1
"18",45,"implicature",0.866,1
"18",46,"unambiguous",0.826,1
"18",47,"unambiguous",0.818,1
"18",48,"unambiguous",2.194,1
"18",49,"implicature",1.801,1
"18",50,"implicature",0.758,1
"18",51,"implicature",0.765,0
"18",52,"implicature",1.861,1
"18",53,"implicature",0.67,0
"18",54,"implicature",0.882,0
"18",55,"implicature",0.946,1
"18",56,"implicature",0.714,1
"18",57,"unambiguous",0.821,1
"18",58,"unambiguous",1.049,1
"18",59,"implicature",0.978,1
"18",60,"unambiguous",0.969,1
"18",61,"implicature",0.99,1
"18",62,"unambiguous",1.009,1
"18",63,"implicature",0.882,1
"18",64,"unambiguous",1.093,1
"18",65,"unambiguous",0.918,1
"18",66,"unambiguous",0.938,1
"18",67,"unambiguous",1.01,1
"18",68,"implicature",0.918,1
"18",69,"unambiguous",1.014,1
"18",70,"implicature",1.629,1
"18",71,"unambiguous",1.022,0
"18",72,"implicature",1.842,1
"18",73,"implicature",1.269,0
"18",74,"unambiguous",1.322,1
"18",76,"unambiguous",1.754,1
"18",77,"unambiguous",1.602,1
"18",78,"implicature",1.189,1
"18",80,"unambiguous",0.914,1
"18",82,"unambiguous",0.83,1
"18",84,"implicature",0.742,1
"18",85,"unambiguous",0.798,1
"18",86,"unambiguous",0.917,1
"18",87,"unambiguous",1.222,1
"18",88,"unambiguous",1.062,1
"18",89,"implicature",0.909,1
"18",90,"implicature",1.37,1
"18",91,"unambiguous",1.854,1
"18",92,"implicature",1.981,1
"18",94,"implicature",1.237,1
"18",95,"unambiguous",0.738,1
"18",96,"implicature",1.147,1
"18",97,"implicature",1.41,1
"18",98,"unambiguous",0.894,0
"18",99,"unambiguous",1.098,1
"18",100,"implicature",2.133,0
"18",102,"implicature",1.421,1
"18",103,"unambiguous",0.954,1
"18",104,"unambiguous",0.818,1
"18",105,"unambiguous",1.129,1
"18",107,"implicature",1.51,1
"18",108,"implicature",0.854,1
"18",109,"implicature",1.082,1
"18",110,"unambiguous",0.951,0
"18",111,"implicature",1.013,1
"18",112,"unambiguous",1.578,1
"18",113,"unambiguous",0.796,1
"18",114,"unambiguous",1.665,1
"18",115,"unambiguous",1.366,1
"18",116,"implicature",0.837,1
"18",117,"unambiguous",0.998,1
"18",118,"implicature",1.97,1
"18",119,"implicature",1.009,1
"18",120,"unambiguous",0.949,1
"19",1,"implicature",1.654,1
"19",2,"unambiguous",2.038,1
"19",4,"implicature",1.28,1
"19",5,"implicature",1.926,1
"19",6,"implicature",2.168,1
"19",7,"unambiguous",1.091,1
"19",8,"unambiguous",1.084,1
"19",9,"implicature",1.361,1
"19",10,"implicature",1.203,1
"19",12,"unambiguous",1.316,1
"19",13,"unambiguous",1.494,1
"19",15,"implicature",1.487,1
"19",14,"implicature",1.8,1
"19",16,"implicature",1.367,1
"19",17,"unambiguous",1.247,1
"19",18,"implicature",0.982,1
"19",19,"unambiguous",1.266,1
"19",20,"implicature",1.168,1
"19",21,"unambiguous",1.167,1
"19",22,"unambiguous",1.906,1
"19",23,"implicature",0.891,1
"19",24,"implicature",1,1
"19",25,"unambiguous",1.236,1
"19",27,"unambiguous",1.069,1
"19",28,"implicature",0.892,1
"19",29,"unambiguous",1.427,1
"19",30,"implicature",1.26,1
"19",31,"implicature",1.036,1
"19",32,"unambiguous",1.126,1
"19",33,"unambiguous",0.974,1
"19",34,"implicature",1.102,0
"19",35,"implicature",1.511,1
"19",36,"unambiguous",0.98,1
"19",37,"implicature",1.216,1
"19",38,"unambiguous",1.984,1
"19",39,"implicature",1.373,1
"19",40,"unambiguous",1.328,1
"19",41,"unambiguous",0.993,1
"19",42,"implicature",1.186,1
"19",43,"unambiguous",2.079,1
"19",44,"implicature",1.18,1
"19",45,"implicature",1.95,1
"19",46,"unambiguous",0.939,1
"19",47,"unambiguous",1.249,1
"19",49,"unambiguous",0.961,1
"19",50,"implicature",1.107,1
"19",51,"implicature",1.046,1
"19",52,"implicature",1.176,1
"19",53,"unambiguous",1.123,1
"19",54,"unambiguous",1.046,1
"19",55,"implicature",2.025,1
"19",56,"implicature",1.025,1
"19",57,"implicature",1.367,1
"19",58,"unambiguous",0.942,1
"19",59,"implicature",1.245,0
"19",60,"implicature",1.087,1
"19",61,"unambiguous",0.854,1
"19",62,"unambiguous",1.041,1
"19",63,"unambiguous",1.389,1
"19",64,"implicature",0.804,1
"19",65,"unambiguous",1.099,1
"19",66,"implicature",0.854,0
"19",68,"implicature",2.323,1
"19",69,"implicature",1.518,1
"19",70,"implicature",1.263,1
"19",71,"unambiguous",1.019,1
"19",72,"implicature",1.252,1
"19",73,"unambiguous",0.967,1
"19",74,"implicature",1.03,1
"19",75,"unambiguous",1.352,1
"19",76,"unambiguous",1.122,1
"19",77,"unambiguous",1.373,1
"19",78,"unambiguous",0.96,1
"19",79,"unambiguous",0.99,1
"19",80,"implicature",1.224,1
"19",81,"unambiguous",1.767,1
"19",82,"unambiguous",1.648,1
"19",83,"unambiguous",1.013,1
"19",84,"implicature",1.879,1
"19",85,"unambiguous",1.675,1
"19",86,"implicature",1.583,1
"19",87,"unambiguous",1.069,1
"19",88,"implicature",1.07,1
"19",91,"unambiguous",1.543,1
"19",92,"implicature",1.362,1
"19",93,"unambiguous",1.929,1
"19",95,"unambiguous",1.93,1
"19",97,"unambiguous",0.804,1
"19",98,"unambiguous",0.922,0
"19",99,"unambiguous",1.809,1
"19",100,"implicature",0.74,1
"19",101,"implicature",0.931,1
"19",102,"implicature",1.316,1
"19",103,"unambiguous",1.017,1
"19",104,"implicature",0.688,0
"19",105,"implicature",1.53,0
"19",106,"implicature",1.602,1
"19",107,"unambiguous",1.021,1
"19",108,"unambiguous",1.499,1
"19",109,"unambiguous",1.333,1
"19",110,"unambiguous",1.182,1
"19",111,"unambiguous",0.792,0
"19",113,"unambiguous",0.805,1
"19",114,"implicature",1.047,1
"19",115,"implicature",1.251,1
"19",116,"implicature",0.863,1
"19",117,"unambiguous",1.092,1
"19",118,"implicature",1.63,1
"19",119,"implicature",0.803,1
"20",1,"unambiguous",1.029,1
"20",2,"unambiguous",0.9,1
"20",3,"implicature",1.152,1
"20",4,"implicature",0.895,1
"20",5,"unambiguous",0.946,1
"20",6,"implicature",1.052,1
"20",7,"implicature",1.705,1
"20",8,"unambiguous",1.011,1
"20",9,"implicature",1.677,1
"20",10,"implicature",1.14,1
"20",11,"unambiguous",0.852,1
"20",12,"implicature",0.804,1
"20",13,"implicature",1.204,1
"20",14,"implicature",1.293,1
"20",15,"unambiguous",0.892,1
"20",17,"implicature",0.755,1
"20",16,"implicature",0.987,1
"20",18,"implicature",0.636,1
"20",19,"unambiguous",0.741,1
"20",20,"unambiguous",0.737,1
"20",21,"implicature",0.868,1
"20",22,"implicature",0.653,1
"20",23,"implicature",1.036,1
"20",24,"unambiguous",0.886,1
"20",25,"unambiguous",0.61,1
"20",26,"implicature",0.697,1
"20",27,"unambiguous",0.629,1
"20",28,"implicature",0.745,1
"20",29,"implicature",0.56,1
"20",30,"unambiguous",0.715,1
"20",31,"unambiguous",0.588,1
"20",32,"implicature",0.906,1
"20",33,"implicature",0.696,1
"20",34,"unambiguous",0.654,1
"20",35,"unambiguous",0.81,1
"20",36,"implicature",1.014,1
"20",37,"unambiguous",0.721,1
"20",38,"implicature",0.71,1
"20",39,"unambiguous",0.698,1
"20",40,"implicature",0.674,1
"20",41,"unambiguous",0.629,1
"20",42,"implicature",1.114,1
"20",43,"unambiguous",0.761,1
"20",44,"unambiguous",0.763,1
"20",45,"implicature",0.817,0
"20",46,"unambiguous",0.801,1
"20",47,"unambiguous",0.868,1
"20",48,"unambiguous",0.842,1
"20",49,"unambiguous",0.785,1
"20",50,"implicature",1.124,1
"20",51,"implicature",0.811,1
"20",52,"unambiguous",0.647,1
"20",53,"unambiguous",0.79,1
"20",54,"implicature",0.849,0
"20",55,"implicature",0.715,1
"20",56,"unambiguous",0.579,1
"20",57,"unambiguous",0.685,1
"20",58,"unambiguous",0.963,1
"20",59,"unambiguous",0.585,1
"20",60,"unambiguous",0.741,1
"20",61,"unambiguous",0.581,1
"20",62,"unambiguous",0.59,1
"20",63,"implicature",0.723,1
"20",64,"implicature",0.704,1
"20",65,"unambiguous",0.748,1
"20",66,"unambiguous",0.654,1
"20",67,"implicature",0.914,0
"20",68,"implicature",0.852,1
"20",69,"implicature",0.546,1
"20",70,"unambiguous",0.69,1
"20",71,"unambiguous",0.977,1
"20",72,"unambiguous",0.73,1
"20",73,"unambiguous",0.653,1
"20",74,"unambiguous",0.98,1
"20",75,"implicature",1.729,1
"20",76,"unambiguous",0.571,1
"20",77,"implicature",0.581,1
"20",78,"unambiguous",0.647,1
"20",79,"unambiguous",0.554,1
"20",80,"unambiguous",0.741,1
"20",81,"implicature",1.267,1
"20",82,"unambiguous",0.609,1
"20",83,"implicature",1.622,1
"20",84,"unambiguous",0.692,1
"20",85,"unambiguous",0.608,0
"20",86,"unambiguous",0.746,1
"20",87,"implicature",0.725,1
"20",88,"unambiguous",0.55,1
"20",89,"implicature",0.649,1
"20",90,"unambiguous",0.586,1
"20",91,"unambiguous",0.634,1
"20",92,"implicature",0.743,0
"20",93,"implicature",0.611,1
"20",94,"implicature",0.609,0
"20",95,"implicature",0.893,1
"20",96,"implicature",0.823,1
"20",97,"implicature",0.735,1
"20",98,"implicature",0.703,1
"20",99,"implicature",0.697,1
"20",100,"implicature",0.623,1
"20",101,"implicature",0.922,0
"20",102,"implicature",0.88,1
"20",103,"unambiguous",0.795,1
"20",104,"implicature",0.795,1
"20",105,"implicature",1.017,1
"20",106,"implicature",0.847,1
"20",107,"implicature",0.811,0
"20",108,"implicature",0.922,1
"20",109,"implicature",0.552,1
"20",110,"implicature",0.624,1
"20",111,"unambiguous",0.959,1
"20",112,"unambiguous",0.838,1
"20",113,"unambiguous",0.688,1
"20",114,"implicature",0.946,1
"20",115,"unambiguous",0.811,1
"20",116,"unambiguous",0.776,1
"20",117,"implicature",0.584,0
"20",118,"unambiguous",0.776,1
"20",119,"unambiguous",0.705,1
"20",120,"unambiguous",0.829,1
"21",1,"implicature",2.197,1
"21",2,"implicature",1.237,1
"21",3,"implicature",1.292,1
"21",5,"implicature",1.552,1
"21",6,"implicature",1.381,1
"21",7,"implicature",1.382,1
"21",8,"unambiguous",1.676,1
"21",9,"unambiguous",2.021,1
"21",10,"unambiguous",1.806,1
"21",11,"implicature",1.596,1
"21",12,"unambiguous",1.35,1
"21",13,"implicature",1.332,1
"21",14,"implicature",1.292,1
"21",15,"implicature",1.237,1
"21",16,"unambiguous",0.989,1
"21",17,"unambiguous",0.949,1
"21",18,"unambiguous",0.876,1
"21",19,"implicature",1.021,1
"21",20,"unambiguous",1.107,1
"21",21,"implicature",1.302,1
"21",22,"unambiguous",1.621,1
"21",23,"unambiguous",1.453,1
"21",24,"implicature",1.462,1
"21",25,"unambiguous",1.228,1
"21",26,"unambiguous",0.86,1
"21",27,"implicature",0.966,1
"21",28,"unambiguous",0.725,1
"21",29,"implicature",1.003,1
"21",30,"unambiguous",1.062,1
"21",31,"unambiguous",1.013,1
"21",32,"implicature",1.597,1
"21",33,"unambiguous",2.019,1
"21",34,"unambiguous",1.003,1
"21",35,"unambiguous",0.965,1
"21",36,"unambiguous",1.588,1
"21",37,"implicature",1.445,1
"21",38,"implicature",0.802,1
"21",39,"unambiguous",0.796,1
"21",40,"implicature",0.94,1
"21",41,"implicature",0.86,1
"21",42,"implicature",0.732,1
"21",43,"implicature",0.917,1
"21",44,"unambiguous",1.028,1
"21",45,"implicature",1.078,1
"21",46,"unambiguous",1.813,1
"21",47,"unambiguous",1.038,1
"21",48,"unambiguous",0.899,1
"21",50,"unambiguous",0.87,1
"21",51,"implicature",1.605,1
"21",52,"implicature",1.844,1
"21",53,"implicature",1.909,1
"21",54,"implicature",1.326,1
"21",55,"implicature",1.251,0
"21",56,"unambiguous",1.099,1
"21",57,"implicature",0.941,1
"21",58,"implicature",0.896,1
"21",59,"unambiguous",1.012,1
"21",60,"implicature",1.382,1
"21",61,"implicature",0.893,1
"21",62,"unambiguous",1.205,1
"21",63,"implicature",1.668,1
"21",64,"implicature",1.221,0
"21",65,"unambiguous",1.862,1
"21",66,"implicature",1.428,1
"21",67,"unambiguous",1.934,1
"21",68,"implicature",0.948,1
"21",69,"unambiguous",0.867,1
"21",70,"implicature",1.101,1
"21",73,"implicature",1.096,1
"21",74,"implicature",1.028,1
"21",75,"implicature",1.357,1
"21",76,"unambiguous",1.922,1
"21",77,"implicature",1.733,1
"21",78,"unambiguous",1.534,1
"21",79,"implicature",1.613,1
"21",80,"implicature",1.068,1
"21",81,"unambiguous",1.245,1
"21",82,"implicature",0.983,1
"21",83,"unambiguous",2.019,1
"21",84,"implicature",1.108,1
"21",85,"implicature",0.859,1
"21",86,"unambiguous",0.964,1
"21",87,"unambiguous",0.949,1
"21",88,"unambiguous",1.548,0
"21",90,"unambiguous",1.14,1
"21",91,"implicature",1.124,1
"21",92,"unambiguous",1.845,1
"21",93,"implicature",1.59,1
"21",94,"unambiguous",1.476,1
"21",95,"unambiguous",0.86,1
"21",96,"implicature",1.14,1
"21",97,"unambiguous",1.861,1
"21",98,"implicature",1.245,1
"21",99,"unambiguous",1.167,1
"21",100,"unambiguous",1.54,1
"21",101,"unambiguous",1.043,1
"21",103,"unambiguous",0.957,1
"21",104,"unambiguous",0.781,1
"21",105,"unambiguous",0.932,1
"21",106,"implicature",1.491,1
"21",108,"unambiguous",1.515,1
"21",109,"unambiguous",1.147,1
"21",110,"implicature",1.118,1
"21",111,"unambiguous",1.277,1
"21",112,"unambiguous",1.061,1
"21",113,"unambiguous",1.711,1
"21",115,"unambiguous",1.084,1
"21",117,"implicature",1.859,1
"21",118,"unambiguous",0.846,1
"21",119,"implicature",1.436,1
"21",120,"implicature",1.75,1
"22",1,"unambiguous",1.339,1
"22",2,"unambiguous",0.946,1
"22",3,"implicature",0.775,1
"22",4,"unambiguous",0.935,1
"22",5,"implicature",0.889,1
"22",6,"unambiguous",0.81,1
"22",7,"implicature",0.889,1
"22",8,"unambiguous",0.814,1
"22",9,"implicature",0.855,0
"22",10,"unambiguous",1.138,1
"22",11,"implicature",0.793,1
"22",12,"unambiguous",0.806,1
"22",13,"implicature",0.842,1
"22",14,"implicature",0.798,1
"22",15,"implicature",0.837,1
"22",16,"implicature",0.949,1
"22",17,"unambiguous",0.934,1
"22",18,"implicature",0.9,1
"22",19,"implicature",0.732,1
"22",20,"unambiguous",0.865,1
"22",21,"unambiguous",0.819,1
"22",22,"implicature",0.877,1
"22",23,"implicature",0.913,1
"22",24,"implicature",0.834,1
"22",25,"unambiguous",1.112,1
"22",26,"unambiguous",0.896,1
"22",27,"unambiguous",1.012,1
"22",28,"implicature",0.848,1
"22",29,"unambiguous",1.56,1
"22",30,"implicature",0.797,1
"22",31,"implicature",0.818,1
"22",32,"implicature",0.782,1
"22",33,"unambiguous",0.887,1
"22",34,"unambiguous",0.999,1
"22",35,"implicature",1.186,1
"22",36,"implicature",0.682,1
"22",37,"unambiguous",1.103,1
"22",38,"unambiguous",0.846,1
"22",39,"implicature",0.79,1
"22",40,"unambiguous",0.774,1
"22",41,"implicature",1.115,1
"22",42,"implicature",1.029,1
"22",43,"unambiguous",0.96,1
"22",44,"implicature",1.085,1
"22",45,"implicature",0.644,1
"22",46,"implicature",0.8,1
"22",47,"unambiguous",0.78,1
"22",48,"implicature",0.773,1
"22",49,"implicature",0.784,1
"22",50,"unambiguous",1.132,1
"22",51,"unambiguous",0.828,1
"22",52,"implicature",0.943,1
"22",53,"unambiguous",0.827,1
"22",54,"implicature",0.662,1
"22",55,"implicature",0.718,1
"22",56,"unambiguous",1.011,1
"22",57,"unambiguous",1.465,1
"22",58,"unambiguous",0.702,1
"22",59,"unambiguous",0.911,1
"22",60,"implicature",0.964,1
"22",62,"implicature",0.848,1
"22",63,"unambiguous",0.971,1
"22",64,"implicature",0.796,1
"22",65,"implicature",0.851,1
"22",66,"unambiguous",0.83,1
"22",67,"implicature",0.676,1
"22",68,"implicature",1.329,1
"22",69,"unambiguous",0.827,1
"22",70,"unambiguous",1.174,1
"22",71,"unambiguous",0.895,1
"22",72,"implicature",0.726,1
"22",73,"unambiguous",0.74,1
"22",74,"unambiguous",0.87,1
"22",75,"unambiguous",0.949,1
"22",76,"implicature",0.789,1
"22",77,"implicature",0.698,1
"22",78,"unambiguous",0.782,1
"22",79,"unambiguous",0.984,1
"22",80,"implicature",0.748,1
"22",81,"unambiguous",0.93,1
"22",82,"unambiguous",0.812,0
"22",83,"unambiguous",1.569,1
"22",84,"implicature",0.768,1
"22",85,"implicature",0.615,1
"22",86,"implicature",0.651,1
"22",87,"implicature",0.654,1
"22",88,"implicature",0.829,1
"22",89,"unambiguous",1.296,1
"22",90,"implicature",0.785,1
"22",91,"implicature",0.674,1
"22",92,"unambiguous",0.94,1
"22",93,"unambiguous",0.783,1
"22",94,"implicature",0.851,1
"22",95,"unambiguous",0.751,1
"22",96,"implicature",0.734,1
"22",98,"unambiguous",0.785,1
"22",97,"implicature",1.026,1
"22",99,"implicature",0.685,1
"22",100,"unambiguous",0.808,1
"22",101,"implicature",0.81,1
"22",102,"implicature",0.659,1
"22",103,"implicature",1.104,1
"22",104,"implicature",1.043,1
"22",105,"implicature",0.821,1
"22",106,"unambiguous",0.926,1
"22",107,"unambiguous",0.974,1
"22",108,"unambiguous",0.884,1
"22",109,"unambiguous",1.197,1
"22",110,"unambiguous",0.805,1
"22",111,"implicature",0.823,1
"22",112,"unambiguous",1.128,1
"22",113,"unambiguous",0.984,1
"22",114,"unambiguous",0.807,1
"22",115,"unambiguous",1.261,1
"22",116,"unambiguous",0.934,1
"22",117,"implicature",0.753,1
"22",118,"implicature",1.573,1
"22",119,"unambiguous",0.801,1
"22",120,"unambiguous",0.755,1
"23",1,"unambiguous",1.804,1
"23",3,"unambiguous",2.116,1
"23",4,"implicature",1.047,0
"23",5,"unambiguous",0.689,1
"23",6,"implicature",0.697,1
"23",7,"unambiguous",0.782,1
"23",8,"implicature",1.789,0
"23",9,"implicature",0.89,0
"23",10,"unambiguous",0.752,1
"23",11,"unambiguous",1.762,1
"23",12,"unambiguous",0.694,1
"23",13,"implicature",0.741,0
"23",14,"implicature",0.713,0
"23",15,"implicature",0.668,0
"23",16,"unambiguous",0.739,1
"23",17,"unambiguous",0.644,1
"23",18,"unambiguous",0.655,1
"23",19,"implicature",0.651,0
"23",20,"unambiguous",1.907,1
"23",21,"unambiguous",0.842,1
"23",23,"implicature",0.733,1
"23",22,"implicature",0.83,1
"23",24,"unambiguous",1.048,1
"23",28,"unambiguous",0.878,1
"23",25,"unambiguous",1.48,1
"23",26,"unambiguous",1.118,1
"23",27,"implicature",0.769,1
"23",29,"implicature",0.774,0
"23",30,"unambiguous",1.371,1
"23",31,"implicature",0.721,1
"23",32,"implicature",0.855,1
"23",33,"unambiguous",1.207,1
"23",34,"unambiguous",0.847,1
"23",35,"implicature",1.171,1
"23",37,"unambiguous",0.836,0
"23",36,"unambiguous",1.043,1
"23",39,"unambiguous",0.968,1
"23",42,"implicature",1.001,0
"23",41,"implicature",0.855,1
"23",40,"unambiguous",0.827,1
"23",38,"implicature",1.186,1
"23",43,"implicature",0.847,1
"23",44,"implicature",0.712,1
"23",45,"implicature",0.746,1
"23",46,"unambiguous",0.979,1
"23",47,"unambiguous",0.772,1
"23",49,"implicature",0.769,1
"23",48,"unambiguous",1.292,1
"23",50,"implicature",0.723,1
"23",51,"unambiguous",1.168,1
"23",52,"unambiguous",0.689,1
"23",53,"unambiguous",0.74,1
"23",54,"unambiguous",0.659,1
"23",55,"unambiguous",1.154,1
"23",56,"implicature",0.828,0
"23",57,"unambiguous",1.048,1
"23",58,"unambiguous",0.954,1
"23",59,"implicature",0.734,1
"23",61,"implicature",1.278,1
"23",60,"implicature",0.959,1
"23",62,"implicature",0.758,1
"23",63,"implicature",0.912,1
"23",64,"implicature",1.05,0
"23",65,"implicature",0.721,1
"23",66,"unambiguous",0.797,1
"23",67,"implicature",0.814,1
"23",68,"unambiguous",0.801,1
"23",69,"implicature",0.879,1
"23",73,"implicature",1.302,1
"23",70,"unambiguous",0.926,1
"23",74,"implicature",0.805,1
"23",72,"unambiguous",0.897,1
"23",71,"implicature",0.834,1
"23",75,"unambiguous",0.81,1
"23",76,"implicature",0.762,1
"23",77,"unambiguous",0.867,1
"23",78,"unambiguous",0.783,1
"23",79,"unambiguous",0.666,1
"23",80,"unambiguous",0.66,1
"23",81,"unambiguous",0.603,1
"23",83,"unambiguous",0.547,1
"23",84,"unambiguous",0.627,1
"23",82,"implicature",0.619,0
"23",85,"implicature",1.007,1
"23",86,"unambiguous",0.725,1
"23",87,"unambiguous",0.9,1
"23",88,"implicature",0.803,1
"23",89,"implicature",0.7,1
"23",90,"unambiguous",0.858,1
"23",94,"implicature",1.073,1
"23",91,"implicature",0.61,1
"23",96,"implicature",0.703,1
"23",92,"unambiguous",0.627,0
"23",95,"implicature",0.663,1
"23",93,"implicature",0.883,0
"23",97,"unambiguous",0.827,1
"23",98,"implicature",0.77,1
"23",99,"unambiguous",0.745,1
"23",104,"implicature",0.832,1
"23",101,"unambiguous",0.747,1
"23",103,"implicature",0.663,1
"23",100,"implicature",0.769,1
"23",105,"unambiguous",1.041,1
"23",102,"implicature",1.303,1
"23",106,"unambiguous",0.848,1
"23",107,"unambiguous",0.766,1
"23",108,"implicature",0.785,0
"23",109,"unambiguous",0.747,1
"23",110,"implicature",0.816,0
"23",111,"implicature",0.65,0
"23",112,"implicature",0.621,0
"23",113,"unambiguous",0.747,1
"23",114,"implicature",0.807,0
"23",115,"unambiguous",0.724,1
"23",116,"implicature",1.246,1
"23",118,"unambiguous",1.322,1
"23",117,"implicature",0.697,1
"23",120,"unambiguous",1.433,1
"23",119,"implicature",1.282,1
"24",1,"unambiguous",1.029,0
"24",2,"unambiguous",0.881,1
"24",3,"implicature",1.162,1
"24",4,"unambiguous",0.85,1
"24",5,"implicature",1.065,1
"24",6,"unambiguous",1.755,1
"24",7,"unambiguous",1.216,1
"24",8,"unambiguous",1.19,1
"24",9,"implicature",0.8,0
"24",10,"implicature",0.666,1
"24",11,"unambiguous",0.985,1
"24",12,"unambiguous",0.746,1
"24",13,"implicature",0.666,0
"24",14,"implicature",1.46,1
"24",15,"unambiguous",1.164,1
"24",16,"implicature",0.739,1
"24",17,"implicature",1.291,1
"24",18,"unambiguous",1.169,1
"24",19,"unambiguous",0.73,1
"24",20,"implicature",0.725,1
"24",21,"unambiguous",0.863,1
"24",22,"implicature",0.71,1
"24",23,"unambiguous",0.763,1
"24",24,"implicature",0.923,1
"24",25,"unambiguous",1.187,1
"24",26,"unambiguous",1.112,1
"24",27,"implicature",0.964,1
"24",28,"implicature",0.692,1
"24",29,"unambiguous",0.806,1
"24",30,"unambiguous",0.704,1
"24",31,"implicature",0.881,0
"24",32,"implicature",1.068,1
"24",33,"unambiguous",0.884,1
"24",34,"unambiguous",0.962,1
"24",35,"implicature",0.692,1
"24",36,"unambiguous",0.723,1
"24",37,"unambiguous",0.83,1
"24",38,"unambiguous",0.879,1
"24",39,"unambiguous",2.115,0
"24",40,"unambiguous",0.716,0
"24",41,"implicature",1.123,1
"24",42,"implicature",0.755,1
"24",43,"unambiguous",1.306,1
"24",44,"unambiguous",0.924,1
"24",45,"unambiguous",0.755,1
"24",46,"implicature",0.673,0
"24",47,"implicature",1.187,1
"24",48,"implicature",0.82,1
"24",49,"implicature",0.931,1
"24",50,"unambiguous",0.845,1
"24",51,"unambiguous",0.826,1
"24",52,"implicature",1.849,1
"24",53,"implicature",0.76,1
"24",54,"unambiguous",1.138,1
"24",55,"implicature",0.899,0
"24",56,"unambiguous",0.852,0
"24",57,"unambiguous",1.155,1
"24",58,"unambiguous",1.099,1
"24",59,"unambiguous",1.302,1
"24",60,"implicature",0.744,1
"24",61,"implicature",0.906,1
"24",62,"unambiguous",0.9,1
"24",63,"implicature",0.883,1
"24",64,"unambiguous",0.732,0
"24",65,"implicature",0.615,1
"24",66,"unambiguous",0.805,1
"24",67,"implicature",0.707,1
"24",68,"unambiguous",0.687,1
"24",69,"implicature",0.723,1
"24",70,"implicature",0.748,1
"24",71,"implicature",0.723,1
"24",72,"implicature",0.619,1
"24",73,"implicature",0.65,1
"24",74,"unambiguous",0.771,1
"24",75,"unambiguous",0.683,1
"24",76,"implicature",0.644,1
"24",77,"implicature",0.651,1
"24",78,"unambiguous",0.643,1
"24",79,"implicature",0.668,1
"24",80,"implicature",0.565,1
"24",81,"implicature",0.739,1
"24",82,"unambiguous",0.525,0
"24",83,"unambiguous",0.722,1
"24",84,"implicature",0.676,1
"24",85,"implicature",0.7,0
"24",86,"unambiguous",1.276,1
"24",87,"implicature",0.551,1
"24",88,"implicature",0.656,1
"24",89,"implicature",0.659,1
"24",90,"unambiguous",1.002,1
"24",91,"implicature",0.701,1
"24",92,"unambiguous",0.643,1
"24",93,"implicature",0.773,1
"24",94,"implicature",0.911,0
"24",95,"unambiguous",1.073,1
"24",96,"unambiguous",0.642,1
"24",97,"unambiguous",0.85,1
"24",98,"unambiguous",0.58,0
"24",99,"unambiguous",1.46,1
"24",100,"implicature",0.708,1
"24",101,"implicature",0.801,1
"24",102,"implicature",0.571,1
"24",103,"implicature",0.77,0
"24",104,"implicature",1.184,1
"24",105,"unambiguous",0.819,1
"24",106,"unambiguous",0.773,1
"24",107,"implicature",0.619,1
"24",108,"implicature",0.666,1
"24",109,"unambiguous",0.861,1
"24",110,"implicature",0.817,1
"24",111,"unambiguous",0.769,1
"24",112,"implicature",0.602,1
"24",113,"unambiguous",0.66,1
"24",114,"implicature",0.6,1
"24",115,"unambiguous",0.7,1
"24",116,"unambiguous",0.715,1
"24",117,"implicature",0.887,1
"24",118,"implicature",0.861,1
"24",119,"unambiguous",0.622,1
"24",120,"unambiguous",1.076,1
"25",1,"implicature",1.366,1
"25",2,"unambiguous",0.769,0
"25",3,"unambiguous",1.021,1
"25",4,"unambiguous",0.834,1
"25",5,"implicature",1.065,1
"25",6,"implicature",0.884,1
"25",7,"unambiguous",0.91,1
"25",8,"unambiguous",0.809,1
"25",9,"unambiguous",0.797,1
"25",10,"implicature",1.06,1
"25",11,"unambiguous",0.779,1
"25",12,"implicature",0.877,1
"25",13,"implicature",0.938,1
"25",14,"implicature",0.863,1
"25",15,"implicature",0.738,1
"25",16,"unambiguous",0.897,1
"25",17,"unambiguous",0.784,1
"25",18,"unambiguous",0.765,1
"25",19,"implicature",0.756,0
"25",20,"implicature",1.182,1
"25",21,"unambiguous",0.976,1
"25",22,"unambiguous",0.853,1
"25",23,"unambiguous",0.767,1
"25",24,"implicature",0.938,1
"25",25,"implicature",0.705,1
"25",26,"implicature",0.855,1
"25",27,"unambiguous",0.738,1
"25",28,"implicature",1.049,1
"25",29,"implicature",1.055,1
"25",30,"unambiguous",0.905,1
"25",31,"implicature",0.914,1
"25",32,"implicature",0.834,1
"25",33,"unambiguous",0.779,1
"25",34,"implicature",0.802,1
"25",35,"implicature",0.789,1
"25",36,"unambiguous",0.77,1
"25",37,"implicature",0.717,1
"25",38,"unambiguous",0.875,1
"25",39,"implicature",0.847,1
"25",40,"unambiguous",0.742,1
"25",41,"unambiguous",0.77,1
"25",42,"unambiguous",0.767,1
"25",43,"implicature",0.749,1
"25",44,"implicature",0.752,1
"25",45,"implicature",0.729,1
"25",46,"unambiguous",0.659,1
"25",47,"unambiguous",0.804,1
"25",48,"unambiguous",1.229,1
"25",49,"implicature",0.878,1
"25",50,"implicature",0.745,1
"25",51,"implicature",0.834,1
"25",52,"implicature",0.822,1
"25",53,"implicature",0.705,1
"25",54,"unambiguous",0.908,1
"25",55,"implicature",0.747,1
"25",56,"implicature",0.815,1
"25",57,"unambiguous",0.748,1
"25",58,"implicature",0.695,1
"25",59,"implicature",0.695,1
"25",60,"implicature",0.752,1
"25",61,"implicature",0.679,1
"25",62,"implicature",0.718,1
"25",63,"implicature",0.982,1
"25",64,"implicature",0.729,1
"25",65,"implicature",0.685,1
"25",66,"unambiguous",0.747,1
"25",67,"unambiguous",0.955,1
"25",68,"unambiguous",0.916,1
"25",69,"unambiguous",0.779,1
"25",70,"implicature",0.759,1
"25",71,"unambiguous",0.708,1
"25",72,"implicature",0.797,1
"25",73,"implicature",0.751,1
"25",74,"unambiguous",0.775,1
"25",75,"implicature",0.904,1
"25",76,"implicature",0.787,1
"25",77,"unambiguous",0.817,1
"25",78,"unambiguous",0.771,1
"25",79,"unambiguous",0.762,1
"25",80,"implicature",0.991,1
"25",81,"unambiguous",0.812,1
"25",82,"unambiguous",0.821,1
"25",83,"implicature",0.793,1
"25",84,"implicature",0.797,1
"25",85,"unambiguous",0.693,1
"25",86,"implicature",0.966,1
"25",87,"unambiguous",0.971,1
"25",88,"implicature",0.913,1
"25",89,"unambiguous",0.975,1
"25",90,"unambiguous",1.135,1
"25",91,"unambiguous",0.809,1
"25",92,"implicature",0.869,1
"25",93,"implicature",0.956,1
"25",94,"unambiguous",0.788,1
"25",95,"implicature",0.73,1
"25",96,"unambiguous",0.723,1
"25",97,"unambiguous",0.892,1
"25",98,"unambiguous",0.753,1
"25",99,"unambiguous",0.691,1
"25",100,"implicature",0.996,1
"25",101,"implicature",0.753,1
"25",102,"unambiguous",0.837,1
"25",103,"implicature",0.731,1
"25",104,"unambiguous",0.72,1
"25",105,"unambiguous",0.789,1
"25",106,"unambiguous",1.019,1
"25",107,"unambiguous",0.695,1
"25",108,"unambiguous",0.748,1
"25",109,"unambiguous",0.742,1
"25",110,"unambiguous",0.724,1
"25",111,"implicature",0.99,1
"25",112,"implicature",0.732,1
"25",113,"unambiguous",0.781,1
"25",114,"unambiguous",0.758,1
"25",115,"unambiguous",0.768,1
"25",116,"unambiguous",0.732,1
"25",117,"implicature",0.787,1
"25",118,"implicature",0.689,1
"25",119,"implicature",0.731,1
"25",120,"unambiguous",0.796,1
"26",1,"unambiguous",0.984,0
"26",2,"implicature",0.821,1
"26",3,"unambiguous",1.496,1
"26",4,"implicature",1.484,1
"26",5,"unambiguous",0.808,1
"26",6,"implicature",0.772,1
"26",7,"implicature",0.785,1
"26",8,"unambiguous",0.947,1
"26",9,"unambiguous",0.66,1
"26",10,"implicature",1.072,1
"26",11,"implicature",0.797,1
"26",12,"unambiguous",1.598,1
"26",13,"unambiguous",1.147,1
"26",14,"unambiguous",0.723,1
"26",15,"implicature",0.872,1
"26",16,"implicature",1.201,1
"26",17,"implicature",1.085,1
"26",18,"unambiguous",0.998,1
"26",19,"unambiguous",0.597,1
"26",20,"implicature",0.897,1
"26",21,"implicature",0.986,1
"26",22,"implicature",1.059,1
"26",23,"implicature",0.91,1
"26",24,"implicature",0.911,1
"26",25,"implicature",0.733,1
"26",26,"unambiguous",1.109,1
"26",27,"unambiguous",0.809,1
"26",28,"implicature",1.022,1
"26",29,"implicature",0.797,1
"26",30,"implicature",0.721,0
"26",31,"unambiguous",1.397,1
"26",32,"unambiguous",0.785,1
"26",33,"unambiguous",0.748,1
"26",34,"implicature",0.909,1
"26",35,"implicature",0.77,1
"26",36,"unambiguous",0.722,1
"26",37,"implicature",0.71,1
"26",38,"unambiguous",1.108,1
"26",39,"implicature",0.859,1
"26",41,"implicature",0.697,1
"26",40,"unambiguous",0.846,1
"26",42,"unambiguous",0.734,1
"26",44,"implicature",0.921,1
"26",43,"unambiguous",0.908,1
"26",46,"unambiguous",1.04,1
"26",45,"unambiguous",0.884,1
"26",47,"implicature",0.654,0
"26",48,"implicature",1.084,1
"26",49,"implicature",1.573,1
"26",50,"unambiguous",0.672,1
"26",51,"implicature",0.91,1
"26",52,"implicature",0.946,1
"26",53,"implicature",0.648,1
"26",54,"unambiguous",0.885,1
"26",55,"implicature",1.148,1
"26",56,"implicature",1.009,1
"26",57,"unambiguous",0.695,1
"26",58,"implicature",0.847,1
"26",59,"implicature",0.793,1
"26",60,"implicature",0.534,1
"26",61,"unambiguous",0.821,1
"26",62,"implicature",0.521,1
"26",63,"implicature",0.659,1
"26",64,"implicature",0.735,1
"26",65,"unambiguous",0.784,1
"26",66,"unambiguous",0.922,1
"26",67,"unambiguous",1.034,1
"26",68,"unambiguous",0.896,1
"26",69,"implicature",0.846,1
"26",70,"implicature",1.206,1
"26",71,"implicature",0.617,1
"26",72,"unambiguous",0.646,1
"26",73,"implicature",0.785,1
"26",74,"unambiguous",0.647,1
"26",75,"unambiguous",0.733,1
"26",76,"unambiguous",0.759,0
"26",77,"implicature",0.797,1
"26",78,"unambiguous",0.859,1
"26",79,"implicature",1.047,1
"26",80,"unambiguous",0.798,1
"26",81,"unambiguous",0.848,1
"26",82,"implicature",0.772,1
"26",83,"implicature",1.084,1
"26",84,"unambiguous",0.552,1
"26",85,"implicature",0.56,1
"26",86,"implicature",0.797,1
"26",87,"unambiguous",0.622,1
"26",88,"unambiguous",0.647,1
"26",89,"implicature",0.585,1
"26",90,"unambiguous",0.809,1
"26",91,"unambiguous",0.647,1
"26",92,"unambiguous",0.647,1
"26",93,"implicature",0.722,1
"26",94,"unambiguous",0.596,1
"26",95,"implicature",0.571,1
"26",96,"unambiguous",0.71,1
"26",97,"unambiguous",0.585,1
"26",98,"unambiguous",0.659,1
"26",99,"unambiguous",0.797,1
"26",100,"implicature",1.046,1
"26",101,"unambiguous",0.771,1
"26",102,"unambiguous",0.609,1
"26",103,"unambiguous",0.673,1
"26",104,"unambiguous",0.648,1
"26",105,"implicature",0.796,1
"26",106,"implicature",0.885,1
"26",107,"unambiguous",0.684,1
"26",108,"implicature",1.146,1
"26",109,"unambiguous",0.628,1
"26",110,"unambiguous",0.596,1
"26",111,"unambiguous",0.596,1
"26",112,"unambiguous",0.86,1
"26",113,"implicature",0.609,0
"26",114,"implicature",1.26,1
"26",115,"unambiguous",0.647,1
"26",116,"unambiguous",0.685,1
"26",117,"implicature",0.859,1
"26",118,"implicature",0.845,1
"26",119,"unambiguous",0.522,1
"26",120,"implicature",1.548,1
"27",3,"unambiguous",1.08,1
"27",4,"unambiguous",1.333,1
"27",2,"implicature",1.13,1
"27",5,"unambiguous",1.251,1
"27",6,"unambiguous",1.105,1
"27",7,"unambiguous",1.028,1
"27",8,"unambiguous",1.207,1
"27",9,"unambiguous",0.844,1
"27",10,"implicature",1.186,0
"27",11,"implicature",1.308,0
"27",13,"unambiguous",1.357,1
"27",14,"unambiguous",1.122,1
"27",15,"unambiguous",1.495,1
"27",16,"implicature",1.112,1
"27",18,"unambiguous",2.414,1
"27",19,"unambiguous",1.363,1
"27",20,"unambiguous",0.773,1
"27",21,"implicature",1.891,0
"27",22,"unambiguous",1.298,1
"27",23,"implicature",1.289,0
"27",24,"implicature",1.24,0
"27",25,"unambiguous",2.164,1
"27",26,"unambiguous",1.466,1
"27",27,"unambiguous",1.251,1
"27",28,"implicature",0.97,0
"27",29,"implicature",0.757,1
"27",30,"implicature",0.924,1
"27",31,"implicature",1.233,1
"27",32,"implicature",0.646,0
"27",33,"unambiguous",1.101,1
"27",34,"unambiguous",0.777,1
"27",35,"implicature",0.921,0
"27",36,"implicature",0.718,0
"27",37,"unambiguous",0.982,1
"27",38,"unambiguous",1.246,1
"27",39,"unambiguous",1.04,1
"27",40,"unambiguous",0.644,1
"27",41,"unambiguous",1.187,1
"27",42,"implicature",1.458,1
"27",43,"implicature",1.144,0
"27",44,"unambiguous",1.746,1
"27",45,"unambiguous",0.911,1
"27",46,"unambiguous",0.703,1
"27",47,"implicature",0.953,0
"27",48,"implicature",1.886,0
"27",49,"unambiguous",0.83,1
"27",50,"implicature",0.691,0
"27",51,"unambiguous",1.665,1
"27",52,"implicature",1.65,1
"27",53,"implicature",1.138,1
"27",54,"implicature",0.995,0
"27",55,"implicature",0.827,1
"27",56,"unambiguous",0.791,1
"27",57,"implicature",1.112,1
"27",58,"unambiguous",0.969,1
"27",59,"implicature",1.065,0
"27",60,"unambiguous",0.832,1
"27",61,"implicature",1.072,0
"27",62,"unambiguous",0.802,1
"27",63,"unambiguous",0.802,1
"27",64,"implicature",1.96,1
"27",65,"implicature",1,1
"27",66,"implicature",0.898,1
"27",67,"implicature",0.834,0
"27",68,"unambiguous",0.911,1
"27",69,"implicature",0.899,0
"27",70,"unambiguous",0.887,1
"27",71,"implicature",0.93,1
"27",72,"implicature",0.653,0
"27",73,"unambiguous",0.845,1
"27",74,"unambiguous",0.893,1
"27",75,"unambiguous",0.728,1
"27",76,"implicature",1.332,0
"27",77,"unambiguous",1.289,1
"27",78,"unambiguous",0.87,0
"27",79,"implicature",1.548,1
"27",80,"unambiguous",0.805,1
"27",81,"unambiguous",0.817,1
"27",82,"implicature",1.497,0
"27",83,"implicature",0.941,1
"27",84,"implicature",0.822,1
"27",85,"implicature",0.744,0
"27",86,"unambiguous",0.798,1
"27",87,"unambiguous",0.833,1
"27",88,"implicature",1.19,1
"27",89,"implicature",0.742,1
"27",90,"unambiguous",0.625,1
"27",91,"implicature",1.123,1
"27",92,"implicature",0.817,1
"27",93,"unambiguous",1.133,1
"27",94,"unambiguous",1.351,1
"27",95,"implicature",0.737,0
"27",96,"implicature",0.831,0
"27",97,"implicature",0.812,0
"27",99,"implicature",1.936,1
"27",100,"implicature",1.433,1
"27",101,"implicature",0.842,1
"27",102,"implicature",0.522,0
"27",103,"unambiguous",0.75,1
"27",104,"unambiguous",0.677,0
"27",105,"implicature",0.595,1
"27",106,"unambiguous",0.633,1
"27",107,"unambiguous",0.762,0
"27",108,"implicature",1.072,0
"27",109,"implicature",1.056,1
"27",110,"unambiguous",0.811,1
"27",111,"implicature",0.896,0
"27",113,"unambiguous",0.977,1
"27",114,"unambiguous",1.297,1
"27",115,"unambiguous",0.821,1
"27",116,"unambiguous",0.809,1
"27",117,"implicature",0.925,1
"27",118,"unambiguous",1.169,1
"27",119,"implicature",0.77,0
"27",120,"implicature",0.963,1
"28",1,"unambiguous",1.085,0
"28",2,"implicature",1.044,0
"28",3,"implicature",1.141,1
"28",4,"implicature",1.021,1
"28",5,"unambiguous",0.845,1
"28",6,"implicature",0.949,1
"28",7,"implicature",0.997,1
"28",8,"unambiguous",1.569,1
"28",9,"unambiguous",0.865,1
"28",10,"implicature",0.71,0
"28",11,"unambiguous",1.125,1
"28",12,"implicature",0.773,1
"28",13,"implicature",1.03,1
"28",14,"unambiguous",0.886,1
"28",15,"implicature",1.02,1
"28",16,"implicature",1.461,1
"28",17,"unambiguous",1.117,1
"28",18,"implicature",0.694,1
"28",19,"unambiguous",0.885,1
"28",20,"unambiguous",0.878,1
"28",21,"implicature",0.83,1
"28",22,"unambiguous",1.062,1
"28",23,"unambiguous",0.718,0
"28",24,"implicature",1.021,1
"28",25,"unambiguous",0.806,0
"28",26,"implicature",0.838,1
"28",27,"implicature",0.753,1
"28",28,"unambiguous",0.759,1
"28",29,"unambiguous",0.926,1
"28",30,"implicature",1.006,1
"28",31,"unambiguous",1.126,1
"28",32,"implicature",0.781,1
"28",33,"unambiguous",0.849,1
"28",34,"unambiguous",0.773,1
"28",35,"unambiguous",0.726,1
"28",36,"unambiguous",0.733,1
"28",37,"unambiguous",0.709,1
"28",38,"implicature",0.91,0
"28",39,"unambiguous",0.692,1
"28",40,"implicature",0.948,0
"28",41,"implicature",1.141,0
"28",42,"unambiguous",1.213,1
"28",43,"unambiguous",0.774,1
"28",44,"implicature",1.037,0
"28",45,"implicature",1.021,1
"28",46,"unambiguous",0.862,1
"28",47,"unambiguous",0.853,1
"28",48,"unambiguous",0.99,1
"28",49,"implicature",0.909,0
"28",50,"unambiguous",0.853,1
"28",51,"unambiguous",1.165,1
"28",52,"unambiguous",1.021,1
"28",53,"implicature",0.949,0
"28",54,"implicature",0.853,0
"28",55,"implicature",0.845,0
"28",56,"implicature",1.373,1
"28",57,"unambiguous",1.069,1
"28",58,"implicature",0.766,0
"28",59,"implicature",0.869,0
"28",60,"unambiguous",0.798,1
"28",61,"implicature",0.757,0
"28",62,"implicature",0.694,1
"28",63,"implicature",0.878,1
"28",64,"implicature",0.854,0
"28",65,"unambiguous",1.158,0
"28",66,"implicature",1.118,0
"28",67,"implicature",0.966,0
"28",68,"unambiguous",0.878,1
"28",69,"implicature",0.606,1
"28",70,"implicature",0.822,1
"28",71,"implicature",0.701,1
"28",72,"implicature",0.774,0
"28",73,"implicature",0.797,1
"28",74,"unambiguous",0.96,1
"28",75,"implicature",0.764,1
"28",76,"unambiguous",1.012,1
"28",77,"unambiguous",0.557,0
"28",78,"unambiguous",1.261,1
"28",79,"unambiguous",0.837,1
"28",80,"implicature",0.653,0
"28",81,"implicature",0.726,0
"28",82,"implicature",0.818,1
"28",83,"implicature",0.725,1
"28",85,"implicature",0.989,0
"28",84,"unambiguous",0.974,1
"28",86,"implicature",0.845,0
"28",87,"implicature",0.872,0
"28",88,"implicature",0.925,0
"28",89,"implicature",0.701,0
"28",90,"unambiguous",0.876,1
"28",91,"unambiguous",0.704,1
"28",92,"unambiguous",0.621,1
"28",93,"implicature",0.997,1
"28",94,"implicature",0.789,0
"28",95,"unambiguous",0.725,1
"28",96,"unambiguous",0.943,1
"28",97,"unambiguous",0.875,1
"28",98,"unambiguous",0.813,1
"28",99,"unambiguous",0.734,1
"28",100,"implicature",0.761,0
"28",101,"implicature",0.785,1
"28",102,"unambiguous",0.801,1
"28",103,"implicature",0.946,0
"28",104,"unambiguous",0.79,1
"28",105,"unambiguous",0.814,1
"28",106,"unambiguous",0.877,1
"28",107,"unambiguous",0.672,1
"28",108,"unambiguous",0.73,1
"28",109,"unambiguous",0.718,1
"28",110,"implicature",0.797,0
"28",111,"implicature",0.671,1
"28",112,"implicature",0.638,1
"28",113,"unambiguous",0.83,0
"28",114,"implicature",0.87,1
"28",115,"unambiguous",1.017,1
"28",116,"unambiguous",0.726,1
"28",117,"unambiguous",0.606,1
"28",118,"unambiguous",0.789,1
"28",119,"implicature",0.837,1
"28",120,"unambiguous",0.766,1
"29",1,"unambiguous",1.836,1
"29",2,"unambiguous",0.775,1
"29",3,"unambiguous",1.089,1
"29",4,"unambiguous",1.057,1
"29",5,"unambiguous",0.8,1
"29",6,"unambiguous",0.903,1
"29",7,"implicature",1.401,1
"29",8,"unambiguous",1.631,1
"29",9,"implicature",1.279,1
"29",10,"unambiguous",1.303,1
"29",11,"implicature",1.02,1
"29",12,"implicature",1.104,1
"29",13,"implicature",0.988,1
"29",14,"implicature",0.946,1
"29",15,"unambiguous",1.293,1
"29",16,"unambiguous",0.985,1
"29",17,"implicature",1.217,1
"29",18,"implicature",1.251,1
"29",19,"unambiguous",1.479,1
"29",20,"unambiguous",0.933,1
"29",21,"implicature",1.191,1
"29",22,"unambiguous",1.005,1
"29",23,"unambiguous",0.867,1
"29",24,"implicature",1.119,1
"29",25,"unambiguous",0.919,1
"29",26,"implicature",0.899,1
"29",27,"implicature",0.846,1
"29",28,"unambiguous",1.104,1
"29",29,"implicature",0.834,1
"29",30,"implicature",1.206,1
"29",31,"implicature",1.005,1
"29",32,"implicature",0.907,1
"29",33,"implicature",0.855,1
"29",34,"implicature",1.273,1
"29",35,"unambiguous",0.906,1
"29",36,"implicature",0.908,1
"29",37,"unambiguous",0.971,1
"29",38,"unambiguous",0.808,1
"29",39,"implicature",0.844,1
"29",40,"implicature",0.886,1
"29",41,"unambiguous",0.865,1
"29",42,"unambiguous",0.976,1
"29",43,"implicature",0.938,1
"29",44,"unambiguous",0.98,1
"29",45,"unambiguous",1.019,1
"29",46,"implicature",0.996,1
"29",47,"unambiguous",0.914,1
"29",48,"implicature",1.322,1
"29",49,"unambiguous",0.907,1
"29",50,"implicature",1.132,1
"29",51,"implicature",0.955,1
"29",52,"implicature",0.817,1
"29",53,"implicature",0.883,1
"29",54,"unambiguous",1.135,1
"29",55,"implicature",0.919,1
"29",56,"implicature",0.846,1
"29",57,"unambiguous",1.061,1
"29",58,"unambiguous",0.778,1
"29",59,"implicature",0.902,1
"29",60,"implicature",0.913,1
"29",61,"unambiguous",1.044,1
"29",62,"unambiguous",0.861,1
"29",63,"implicature",0.753,1
"29",64,"implicature",0.74,1
"29",65,"unambiguous",0.89,1
"29",66,"implicature",1.787,1
"29",67,"unambiguous",0.857,1
"29",68,"unambiguous",0.924,1
"29",69,"implicature",0.86,1
"29",70,"implicature",0.993,1
"29",71,"implicature",1.437,1
"29",72,"implicature",0.841,1
"29",73,"unambiguous",0.974,1
"29",74,"implicature",0.895,1
"29",75,"unambiguous",0.85,1
"29",76,"unambiguous",0.917,1
"29",77,"implicature",0.926,1
"29",78,"unambiguous",0.826,1
"29",79,"implicature",0.996,1
"29",80,"unambiguous",0.859,1
"29",81,"unambiguous",0.815,1
"29",82,"implicature",1.016,1
"29",84,"unambiguous",0.905,1
"29",83,"implicature",0.799,1
"29",85,"unambiguous",1.138,1
"29",86,"unambiguous",0.821,1
"29",90,"unambiguous",1.241,1
"29",89,"unambiguous",0.905,1
"29",87,"implicature",1.069,1
"29",88,"unambiguous",0.887,1
"29",91,"implicature",1.044,1
"29",92,"unambiguous",1.237,1
"29",93,"implicature",0.811,1
"29",94,"implicature",0.864,1
"29",95,"implicature",1.273,1
"29",96,"unambiguous",0.891,1
"29",97,"unambiguous",0.866,1
"29",98,"unambiguous",1.003,1
"29",99,"unambiguous",0.783,1
"29",100,"unambiguous",0.941,1
"29",101,"implicature",0.836,1
"29",102,"implicature",0.766,1
"29",103,"implicature",0.759,1
"29",104,"implicature",1.007,1
"29",105,"implicature",0.819,1
"29",106,"implicature",0.903,1
"29",107,"implicature",0.775,1
"29",108,"unambiguous",0.9,1
"29",109,"unambiguous",1.175,1
"29",110,"unambiguous",0.996,1
"29",111,"unambiguous",1.1,1
"29",112,"unambiguous",0.937,1
"29",113,"implicature",0.745,1
"29",114,"unambiguous",1.067,1
"29",115,"unambiguous",1.149,1
"29",116,"implicature",0.866,1
"29",117,"unambiguous",1.067,1
"29",118,"implicature",0.813,1
"29",119,"unambiguous",0.841,1
"29",120,"implicature",0.867,1
"30",1,"unambiguous",1.101,1
"30",2,"implicature",0.965,1
"30",3,"unambiguous",0.947,1
"30",4,"unambiguous",0.996,1
"30",5,"unambiguous",0.789,1
"30",6,"implicature",0.893,1
"30",7,"unambiguous",0.925,1
"30",8,"unambiguous",0.877,1
"30",9,"unambiguous",0.877,1
"30",10,"implicature",0.876,1
"30",11,"implicature",0.741,1
"30",12,"implicature",0.725,1
"30",13,"implicature",0.829,1
"30",14,"implicature",1.1,1
"30",15,"unambiguous",0.845,1
"30",16,"unambiguous",0.932,1
"30",17,"unambiguous",1.092,1
"30",18,"implicature",0.847,1
"30",19,"unambiguous",0.828,1
"30",20,"implicature",0.757,1
"30",21,"unambiguous",0.813,1
"30",22,"implicature",1.02,1
"30",23,"unambiguous",0.836,1
"30",24,"unambiguous",0.766,1
"30",25,"unambiguous",0.779,1
"30",26,"implicature",0.724,1
"30",27,"implicature",0.805,1
"30",28,"unambiguous",0.813,1
"30",29,"implicature",0.757,1
"30",30,"unambiguous",0.901,1
"30",31,"implicature",0.788,1
"30",32,"unambiguous",0.892,1
"30",33,"unambiguous",0.853,1
"30",34,"unambiguous",0.973,1
"30",35,"implicature",0.772,1
"30",36,"implicature",0.708,1
"30",37,"unambiguous",0.861,1
"30",38,"unambiguous",0.741,1
"30",39,"implicature",0.781,1
"30",40,"implicature",0.733,1
"30",41,"unambiguous",1.054,1
"30",42,"implicature",0.885,1
"30",43,"unambiguous",0.806,1
"30",44,"implicature",0.908,0
"30",45,"unambiguous",1.077,1
"30",46,"unambiguous",0.923,1
"30",47,"implicature",0.82,1
"30",48,"unambiguous",0.814,1
"30",49,"implicature",1.213,1
"30",50,"unambiguous",0.989,1
"30",51,"unambiguous",0.862,1
"30",52,"implicature",0.901,1
"30",53,"unambiguous",0.82,1
"30",54,"unambiguous",0.765,1
"30",55,"unambiguous",0.757,1
"30",56,"implicature",0.886,1
"30",57,"implicature",0.765,0
"30",58,"unambiguous",1.429,1
"30",59,"implicature",0.941,1
"30",60,"unambiguous",0.821,1
"30",61,"implicature",0.821,1
"30",62,"implicature",0.781,1
"30",63,"implicature",0.741,1
"30",64,"implicature",0.773,1
"30",65,"unambiguous",1.758,1
"30",66,"unambiguous",0.819,1
"30",67,"unambiguous",1.045,1
"30",68,"unambiguous",0.732,1
