"subj_idx","age","trial_num","trial_type","rt","response"
"121615_1",4.23272,1,"none",5.499,0
"121615_1",4.23272,2,"some",5.292,0
"121615_1",4.23272,3,"all",2.458,1
"121615_1",4.23272,4,"none",3.574,0
"121615_1",4.23272,6,"none",1.228,0
"121615_1",4.23272,7,"some",1.718,0
"121615_1",4.23272,8,"none",2.259,0
"121615_1",4.23272,9,"all",1.444,1
"121615_1",4.23272,10,"some",1.703,0
"121615_1",4.23272,11,"all",3.097,1
"121615_1",4.23272,12,"none",4.233,0
"121615_1",4.23272,13,"all",2.415,1
"121615_1",4.23272,14,"none",1.328,0
"121615_1",4.23272,15,"all",1.266,1
"121615_1",4.23272,16,"all",2.205,1
"121615_1",4.23272,17,"some",1.13,0
"121615_1",4.23272,18,"none",10.837,1
"121615_1",4.23272,19,"none",1.24,0
"121615_1",4.23272,20,"all",2.542,1
"121615_1",4.23272,21,"some",7.277,0
"121615_1",4.23272,22,"none",3.542,0
"121615_1",4.23272,23,"all",7.676,0
"121715_1",3.12115,1,"none",8.999,0
"121715_1",3.12115,2,"all",4.118,1
"121715_1",3.12115,3,"none",1.628,0
"121715_1",3.12115,4,"some",5.431,0
"121715_1",3.12115,6,"some",10.819,1
"121715_1",3.12115,7,"all",7.854,0
"121715_1",3.12115,8,"some",6.217,0
"121715_1",3.12115,9,"none",4.498,0
"121715_1",3.12115,10,"all",6.399,1
"121715_1",3.12115,11,"some",3.908,0
"121715_1",3.12115,12,"none",12.751,0
"121715_1",3.12115,13,"some",11.016,0
"121715_1",3.12115,14,"all",3.495,1
"121715_1",3.12115,15,"some",2.845,0
"121715_1",3.12115,16,"some",2.568,0
"121715_1",3.12115,17,"all",6.779,1
"121715_1",3.12115,18,"none",7.511,0
"121715_1",3.12115,19,"none",7.648,0
"121715_1",3.12115,20,"none",9.25,0
"121715_1",3.12115,21,"all",5.637,1
"121715_1",3.12115,22,"some",3.797,0
"121715_1",3.12115,23,"some",3.399,0
"121715_1",3.12115,24,"all",2.574,1
"121715_1",3.12115,25,"none",3.335,0
"121715_1",3.12115,26,"all",3.028,1
"121715_1",3.12115,27,"some",1.528,0
"121715_1",3.12115,28,"none",3.935,0
"121715_1",3.12115,29,"all",3.904,1
"121715_1",3.12115,30,"none",2.844,0
"121815_1",4.5859,1,"some",3.753,0
"121815_1",4.5859,2,"some",2.759,0
"121815_1",4.5859,3,"some",2.469,0
"121815_1",4.5859,4,"all",4.398,1
"121815_1",4.5859,5,"all",2.447,1
"121815_1",4.5859,6,"none",2.89,0
"121815_1",4.5859,7,"some",2.183,0
"121815_1",4.5859,8,"some",4.078,0
"121815_1",4.5859,9,"none",2.412,0
"121815_1",4.5859,10,"none",6.3,0
"121815_1",4.5859,11,"none",4.796,0
"121815_1",4.5859,12,"some",4.491,1
"121815_1",4.5859,13,"none",3.853,0
"121815_1",4.5859,14,"none",3.983,0
"121815_1",4.5859,15,"none",4.502,0
"121815_1",4.5859,16,"some",3.814,0
"121815_1",4.5859,17,"all",5.648,1
"121815_1",4.5859,18,"some",2.986,0
"121815_1",4.5859,19,"all",3.726,0
"121815_1",4.5859,20,"all",2.332,1
"121815_1",4.5859,21,"none",4.199,1
"121815_1",4.5859,22,"all",4.669,0
"121815_1",4.5859,23,"none",6.218,0
"121815_1",4.5859,24,"all",2.382,1
"121815_1",4.5859,25,"all",4.673,0
"121815_1",4.5859,26,"some",2.868,1
"121815_1",4.5859,27,"all",3.349,0
"121815_1",4.5859,28,"some",2.27,0
"121815_1",4.5859,29,"none",3.481,0
"121815_1",4.5859,30,"all",4.623,0
"121815_3",4.37509,1,"all",3.411,1
"121815_3",4.37509,2,"none",1.477,0
"121815_3",4.37509,3,"none",4.166,1
"121815_3",4.37509,4,"some",2.891,1
"121815_3",4.37509,5,"none",3.533,1
"121815_3",4.37509,6,"none",3.399,1
"121815_3",4.37509,7,"all",2.074,1
"121815_3",4.37509,8,"none",4.863,1
"121815_3",4.37509,9,"some",6.286,1
"121815_3",4.37509,10,"some",2.118,1
"121815_3",4.37509,11,"some",1.437,1
"121815_3",4.37509,12,"none",6.913,1
"121815_3",4.37509,13,"all",1.859,1
"121815_3",4.37509,14,"some",1.896,1
"121815_3",4.37509,15,"some",2.273,1
"121815_3",4.37509,16,"all",1.64,1
"121815_3",4.37509,17,"all",3.412,1
"121815_3",4.37509,18,"all",1.541,1
"121815_3",4.37509,19,"none",2.812,1
"121815_3",4.37509,20,"some",6.532,1
"121815_3",4.37509,21,"some",5.107,1
"121815_3",4.37509,22,"all",4.827,1
"121815_3",4.37509,23,"all",0.904,1
"121815_3",4.37509,24,"some",14.635,1
"121815_3",4.37509,25,"none",2.235,0
"121815_3",4.37509,26,"some",1.205,1
"121815_3",4.37509,27,"none",1.518,1
"121815_3",4.37509,28,"none",6.291,1
"121815_3",4.37509,29,"all",3.045,1
"121815_3",4.37509,30,"all",1.901,1
"121815_4",4.98015,1,"none",6.175,0
"121815_4",4.98015,2,"all",3.175,1
"121815_4",4.98015,3,"some",4.822,0
"121815_4",4.98015,4,"all",3.935,1
"121815_4",4.98015,5,"all",1.221,1
"121815_4",4.98015,6,"none",4.682,0
"121815_4",4.98015,7,"all",5.538,1
"121815_4",4.98015,8,"some",3.713,1
"121815_4",4.98015,9,"all",1.119,1
"121815_4",4.98015,10,"all",1.75,1
"121815_4",4.98015,11,"none",1.585,0
"121815_4",4.98015,12,"some",1.863,1
"121815_4",4.98015,13,"some",2.661,1
"121815_4",4.98015,14,"all",1.299,1
"121815_4",4.98015,15,"all",1.274,1
"121815_4",4.98015,16,"all",1.659,1
"121815_4",4.98015,17,"none",2.143,0
"121815_4",4.98015,18,"some",1.842,1
"121815_4",4.98015,19,"some",1.316,1
"121815_4",4.98015,20,"none",1.86,0
"121815_4",4.98015,21,"some",2.077,0
"121815_4",4.98015,22,"none",1.555,0
"121815_4",4.98015,23,"some",1.765,0
"121815_4",4.98015,24,"some",1.774,0
"121815_4",4.98015,25,"none",1.16,0
"121815_4",4.98015,26,"none",1.235,0
"121815_4",4.98015,27,"none",3.117,0
"121815_4",4.98015,28,"all",1.051,1
"121815_4",4.98015,29,"some",1.327,1
"121815_4",4.98015,30,"none",1.257,0
"121815_5",6.00958,2,"some",2.169,0
"121815_5",6.00958,3,"all",1.434,1
"121815_5",6.00958,4,"all",1.119,1
"121815_5",6.00958,5,"none",1.643,0
"121815_5",6.00958,6,"some",1.762,0
"121815_5",6.00958,7,"some",1.726,0
"121815_5",6.00958,8,"some",1.406,0
"121815_5",6.00958,9,"none",3.052,0
"121815_5",6.00958,10,"all",2.494,1
"121815_5",6.00958,11,"all",1.718,1
"121815_5",6.00958,13,"all",3.442,1
"121815_5",6.00958,14,"all",2.014,1
"121815_5",6.00958,15,"all",1.322,1
"121815_5",6.00958,16,"none",2.381,0
"121815_5",6.00958,17,"some",1.912,0
"121815_5",6.00958,18,"some",1.756,0
"121815_5",6.00958,19,"some",2.009,0
"121815_5",6.00958,20,"some",1.432,0
"121815_5",6.00958,21,"all",2.309,1
"121815_5",6.00958,22,"some",3.044,0
"121815_5",6.00958,23,"none",2.941,1
"121815_5",6.00958,24,"none",1.324,0
"121815_5",6.00958,25,"none",3.222,0
"121815_5",6.00958,26,"none",1.007,0
"121815_5",6.00958,27,"none",1.474,0
"121815_7",3.99179,1,"some",5.288,1
"121815_7",3.99179,2,"none",4.486,0
"121815_7",3.99179,3,"all",3.78,1
"121815_7",3.99179,4,"none",6.808,0
"121815_7",3.99179,5,"all",8.897,1
"121815_7",3.99179,6,"none",6.847,0
"121815_7",3.99179,7,"all",6.761,1
"121815_7",3.99179,9,"some",3.337,0
"121815_7",3.99179,10,"none",1.953,0
"121815_7",3.99179,11,"all",2.064,1
"121815_7",3.99179,12,"all",1.009,1
"121815_7",3.99179,13,"all",2.359,1
"121815_7",3.99179,14,"all",3.289,1
"121815_7",3.99179,15,"all",2.365,0
"121815_7",3.99179,16,"some",1.004,0
"121815_7",3.99179,17,"some",3.247,0
"121815_7",3.99179,18,"none",1.515,0
"121815_7",3.99179,19,"none",1.704,0
"121815_7",3.99179,20,"none",3.127,0
"121815_7",3.99179,21,"some",1.468,1
"121815_7",3.99179,22,"some",2.16,0
"1616_1",4,1,"some",9.608,0
"1616_1",4,3,"some",9.003,0
"1616_1",4,6,"all",8.872,1
"1616_1",4,7,"some",12.797,0
"1616_1",4,8,"some",6.729,0
"1616_1",4,9,"some",6.449,0
"1616_1",4,10,"some",8.389,0
"1616_1",4,12,"all",3.968,1
"1616_1",4,13,"all",4.485,1
"1616_1",4,14,"all",11.988,1
"1616_1",4,16,"none",7.89,0
"1616_1",4,18,"none",13.996,1
"1616_1",4,19,"some",5.863,0
"1616_1",4,20,"none",11.804,1
"1616_1",4,21,"none",5.876,1
"1616_1",4,22,"none",10.568,1
"1616_1",4,23,"none",7.255,0
"1616_1",4,24,"all",4.622,1
"1616_1",4,25,"all",7.112,1
"1616_1",4,26,"some",1.793,0
"1616_1",4,27,"all",5.162,1
"1616_1",4,28,"all",11.344,1
"1616_1",4,29,"all",5.227,1
"1616_1",4,30,"some",13.965,0
"1616_2",5.9384,1,"none",8.056,1
"1616_2",5.9384,2,"all",5.315,1
"1616_2",5.9384,3,"none",2.788,1
"1616_2",5.9384,4,"none",3.044,1
"1616_2",5.9384,5,"some",2.267,1
"1616_2",5.9384,6,"some",1.183,1
"1616_2",5.9384,7,"all",1.066,1
"1616_2",5.9384,8,"all",1.141,1
"1616_2",5.9384,10,"none",2.674,1
"1616_2",5.9384,11,"some",1.982,1
"1616_2",5.9384,12,"none",3.601,1
"1616_2",5.9384,13,"all",1.918,1
"1616_2",5.9384,14,"some",3.292,1
"1616_2",5.9384,15,"some",1.539,1
"1616_2",5.9384,16,"all",0.888,1
"1616_2",5.9384,17,"some",2.253,1
"1616_2",5.9384,18,"all",0.868,1
"1616_2",5.9384,20,"none",3.53,1
"1616_2",5.9384,21,"all",3.418,1
"1616_2",5.9384,22,"some",1.226,1
"1616_2",5.9384,23,"all",1.539,1
"1616_2",5.9384,24,"none",7.119,1
"1616_2",5.9384,25,"all",2.549,1
"1616_2",5.9384,26,"some",2.387,1
"1616_2",5.9384,27,"some",2.423,1
"1616_2",5.9384,29,"none",8.062,1
"1616_2",5.9384,30,"some",1.923,1
"1616_1",4,1,"all",12.611,1
"1616_3",4.12868,1,"some",7.948,0
"1616_3",4.12868,2,"all",4.381,1
"1616_3",4.12868,3,"all",2.714,1
"1616_3",4.12868,4,"some",6.488,0
"1616_3",4.12868,5,"none",2.536,0
"1616_3",4.12868,6,"all",11.828,1
"1616_3",4.12868,7,"some",5.956,0
"1616_3",4.12868,8,"some",6.005,0
"1616_3",4.12868,9,"all",5.895,1
"1616_3",4.12868,10,"some",2.776,0
"1616_3",4.12868,14,"some",9.09,0
"1616_3",4.12868,15,"all",4.557,1
"1616_3",4.12868,16,"none",6.069,0
"1616_3",4.12868,18,"some",5.008,0
"1616_3",4.12868,19,"all",8.93,1
"1616_3",4.12868,21,"none",6.977,1
"1616_3",4.12868,22,"some",3.664,0
"1616_3",4.12868,23,"all",10.473,1
"1616_3",4.12868,24,"all",4.746,1
"1616_3",4.12868,25,"none",9.258,1
"1616_3",4.12868,26,"none",6.073,1
"1616_3",4.12868,28,"all",6.644,1
"1616_3",4.12868,29,"all",5.54,1
"1616_5",5.63176,1,"all",2.304,0
"1616_5",5.63176,3,"none",4.28,0
"1616_5",5.63176,4,"some",2.025,0
"1616_5",5.63176,5,"all",0.718,1
"1616_5",5.63176,6,"none",2.053,1
"1616_5",5.63176,7,"some",1.351,1
"1616_5",5.63176,8,"all",2.688,1
"1616_5",5.63176,9,"all",0.71,1
"1616_5",5.63176,10,"none",1.848,1
"1616_5",5.63176,11,"none",1.213,1
"1616_5",5.63176,12,"some",1.439,1
"1616_5",5.63176,13,"all",2.638,0
"1616_5",5.63176,14,"all",5.441,0
"1616_5",5.63176,15,"some",2.338,1
"1616_5",5.63176,16,"none",1.621,1
"1616_5",5.63176,17,"none",0.783,1
"1616_5",5.63176,18,"some",1.041,1
"1616_5",5.63176,19,"all",2.116,1
"1616_5",5.63176,20,"none",2.201,1
"1616_5",5.63176,21,"none",2.608,1
"1616_5",5.63176,22,"all",1.979,1
"1616_5",5.63176,23,"some",0.976,1
"1616_5",5.63176,24,"some",1.433,1
"1616_5",5.63176,25,"some",5.901,0
"1616_5",5.63176,26,"all",1.965,1
"1616_5",5.63176,27,"some",1.075,1
"1616_5",5.63176,28,"some",2.288,1
"1616_5",5.63176,29,"none",2.205,1
"1616_5",5.63176,30,"none",1.153,1
"1616_7",5.48392,1,"some",3.925,1
"1616_7",5.48392,2,"all",1.356,0
"1616_7",5.48392,3,"all",1.906,1
"1616_7",5.48392,4,"some",0.716,0
"1616_7",5.48392,5,"none",1.663,0
"1616_7",5.48392,6,"all",3.053,1
"1616_7",5.48392,7,"some",2.195,0
"1616_7",5.48392,8,"all",1.506,1
"1616_7",5.48392,9,"all",3.808,1
"1616_7",5.48392,10,"none",2.374,0
"1616_7",5.48392,11,"none",1.728,0
"1616_7",5.48392,12,"all",1.499,1
"1616_7",5.48392,13,"all",2.159,1
"1616_7",5.48392,14,"some",1.852,0
"1616_7",5.48392,16,"some",2.452,0
"1616_7",5.48392,17,"none",1.842,0
"1616_7",5.48392,18,"none",1.159,0
"1616_7",5.48392,19,"some",2.965,0
"1616_7",5.48392,20,"some",2.739,0
"1616_7",5.48392,21,"all",4.594,1
"1616_7",5.48392,22,"none",1.506,0
"1616_7",5.48392,23,"all",7.595,1
"1616_7",5.48392,24,"some",4.241,0
"1616_7",5.48392,25,"none",1.263,0
"1616_7",5.48392,26,"none",2.165,0
"1616_7",5.48392,27,"some",3.785,0
"1616_7",5.48392,28,"all",1.479,1
"1616_7",5.48392,29,"none",1.958,0
"1616_7",5.48392,30,"none",3.51,0
"1616_8",5.9384,1,"all",8.281,1
"1616_8",5.9384,2,"some",3.841,0
"1616_8",5.9384,3,"none",9.172,1
"1616_8",5.9384,4,"all",2.027,1
"1616_8",5.9384,5,"all",1.593,1
"1616_8",5.9384,6,"some",1.684,0
"1616_8",5.9384,7,"none",2.558,1
"1616_8",5.9384,8,"none",4.092,1
"1616_8",5.9384,9,"none",3.148,1
"1616_8",5.9384,10,"all",1.581,1
"1616_8",5.9384,11,"none",2.581,1
"1616_8",5.9384,12,"all",3.179,1
"1616_8",5.9384,13,"all",2.04,1
"1616_8",5.9384,14,"all",2.362,1
"1616_8",5.9384,15,"all",2.54,1
"1616_8",5.9384,16,"some",3.386,0
"1616_8",5.9384,17,"none",1.669,1
"1616_8",5.9384,18,"none",2.1,1
"1616_8",5.9384,19,"some",1.613,0
"1616_8",5.9384,20,"some",2.36,0
"1616_8",5.9384,21,"all",2.604,1
"1616_8",5.9384,22,"some",1.792,0
"1616_8",5.9384,23,"none",2.732,1
"1616_8",5.9384,24,"none",1.687,1
"1616_8",5.9384,25,"none",3.76,1
"1616_8",5.9384,26,"some",2.27,0
"1616_8",5.9384,27,"some",1.439,0
"1616_8",5.9384,28,"some",1.334,0
"1616_8",5.9384,29,"some",1.219,0
"1616_8",5.9384,30,"all",1.052,1
"1616_9",4.06297,1,"all",4.074,1
"1616_9",4.06297,2,"all",2.616,0
"1616_9",4.06297,3,"some",2.414,1
"1616_9",4.06297,4,"none",4.415,1
"1616_9",4.06297,5,"some",2.55,1
"1616_9",4.06297,6,"all",2.719,1
"1616_9",4.06297,7,"some",3.313,1
"1616_9",4.06297,8,"all",1.701,1
"1616_9",4.06297,9,"all",2.604,1
"1616_9",4.06297,10,"none",2.552,0
"1616_9",4.06297,11,"none",4.265,0
"1616_9",4.06297,12,"some",2.455,1
"1616_9",4.06297,13,"some",1.804,1
"1616_9",4.06297,14,"all",2.153,0
"1616_9",4.06297,15,"none",5.115,0
"1616_9",4.06297,16,"all",1.308,1
"1616_9",4.06297,17,"all",2.309,1
"1616_9",4.06297,18,"none",3.209,0
"1616_9",4.06297,19,"some",1.183,1
"1616_9",4.06297,20,"none",2.09,0
"1616_9",4.06297,21,"none",3.896,0
"1616_9",4.06297,22,"none",2.315,1
"1616_9",4.06297,23,"none",2.153,0
"1616_9",4.06297,24,"some",2.221,1
"1616_9",4.06297,25,"none",3.601,1
"1616_9",4.06297,26,"all",3.268,1
"1616_9",4.06297,27,"all",1.255,1
"1616_9",4.06297,28,"some",2.704,0
"1616_9",4.06297,29,"some",1.535,1
"1616_9",4.06297,30,"some",1.288,1
"1716_1",3.73443,1,"all",10.726,0
"1716_1",3.73443,2,"none",8.157,0
"1716_1",3.73443,3,"some",4.943,0
"1716_1",3.73443,4,"none",2.799,0
"1716_1",3.73443,5,"none",8.621,0
"1716_1",3.73443,6,"none",1.347,0
"1716_1",3.73443,7,"some",10.645,0
"1716_1",3.73443,8,"none",1.941,0
"1716_1",3.73443,9,"none",3.176,0
"1716_1",3.73443,10,"none",0.706,0
"1716_1",3.73443,11,"some",1.949,0
"1716_1",3.73443,12,"all",1.034,1
"1716_1",3.73443,13,"all",1.693,1
"1716_1",3.73443,14,"some",0.983,0
"1716_1",3.73443,17,"some",1.01,1
"1716_1",3.73443,18,"some",1.207,1
"1716_1",3.73443,19,"all",7.987,1
"1716_1",3.73443,20,"some",0.87,0
"1716_2",5.05407,1,"some",1.688,0
"1716_2",5.05407,2,"none",1.261,0
"1716_2",5.05407,3,"none",2.928,0
"1716_2",5.05407,4,"all",1.597,1
"1716_2",5.05407,5,"some",1.284,0
"1716_2",5.05407,6,"some",1.849,0
"1716_2",5.05407,7,"some",1.59,0
"1716_2",5.05407,8,"all",1.343,1
"1716_2",5.05407,9,"none",1.507,0
"1716_2",5.05407,10,"some",1.323,0
"1716_2",5.05407,11,"all",1.334,0
"1716_2",5.05407,12,"none",1.361,0
"1716_2",5.05407,13,"some",3.529,0
"1716_2",5.05407,14,"some",1.051,0
"1716_2",5.05407,15,"none",1.875,0
"1716_2",5.05407,16,"all",3.123,1
"1716_2",5.05407,17,"none",2.536,0
"1716_2",5.05407,18,"some",1.744,0
"1716_2",5.05407,19,"none",1.169,0
"1716_2",5.05407,20,"none",0.958,0
"1716_2",5.05407,21,"all",1.495,1
"1716_2",5.05407,22,"all",1.852,1
"1716_2",5.05407,23,"none",0.904,0
"1716_2",5.05407,24,"all",0.881,1
"1716_2",5.05407,26,"some",1.495,0
"1716_2",5.05407,27,"all",1.466,1
"1716_2",5.05407,28,"all",0.936,1
"1716_2",5.05407,29,"all",1.475,1
"1716_2",5.05407,30,"none",1.405,0
"1716_3",4.60233,1,"none",4.004,1
"1716_3",4.60233,2,"all",3.041,1
"1716_3",4.60233,3,"some",4.337,1
"1716_3",4.60233,4,"some",3.377,1
"1716_3",4.60233,5,"all",1.95,1
"1716_3",4.60233,6,"all",1.429,1
"1716_3",4.60233,7,"some",1.982,1
"1716_3",4.60233,8,"some",1.214,1
"1716_3",4.60233,9,"none",5.768,1
"1716_3",4.60233,10,"some",2.612,1
"1716_3",4.60233,11,"some",1.786,1
"1716_3",4.60233,12,"some",3.01,1
"1716_3",4.60233,13,"none",3.365,1
"1716_3",4.60233,14,"all",1.441,1
"1716_3",4.60233,15,"all",3.318,1
"1716_3",4.60233,16,"none",3.247,0
"1716_3",4.60233,17,"all",2.285,0
"1716_3",4.60233,18,"none",2.552,0
"1716_3",4.60233,19,"all",1.705,1
"1716_3",4.60233,20,"all",1.212,1
"1716_3",4.60233,21,"some",0.982,1
"1716_3",4.60233,22,"none",2.187,0
"1716_3",4.60233,23,"all",1.405,1
"1716_3",4.60233,24,"none",1.95,0
"1716_3",4.60233,25,"some",1.902,1
"1716_3",4.60233,26,"all",1.148,1
"1716_3",4.60233,27,"none",2.492,0
"1716_3",4.60233,28,"none",3.911,0
"1716_3",4.60233,29,"some",3.474,1
"1716_3",4.60233,30,"none",5.474,0
"1816_1",4.56947,1,"none",14.741,0
"1816_1",4.56947,2,"some",3.291,0
"1816_1",4.56947,3,"some",6.225,1
"1816_1",4.56947,4,"some",4.188,0
"1816_1",4.56947,5,"all",3.352,1
"1816_1",4.56947,6,"none",3.887,0
"1816_1",4.56947,7,"some",2.084,1
"1816_1",4.56947,8,"none",2.449,0
"1816_1",4.56947,9,"all",2.627,0
"1816_1",4.56947,10,"all",1.47,1
"1816_1",4.56947,11,"all",1.588,0
"1816_1",4.56947,12,"none",1.589,0
"1816_1",4.56947,13,"all",1.4,1
"1816_1",4.56947,14,"all",1.905,1
"1816_1",4.56947,15,"all",1.582,1
"1816_1",4.56947,16,"all",1.554,1
"1816_1",4.56947,17,"none",3.069,0
"1816_1",4.56947,18,"none",1.335,0
"1816_1",4.56947,19,"some",1.01,0
"1816_1",4.56947,20,"none",2.492,0
"1816_1",4.56947,21,"some",2.2,0
"1816_1",4.56947,22,"all",0.912,1
"1816_1",4.56947,23,"none",12.393,1
"1816_1",4.56947,24,"some",2.971,1
"1816_1",4.56947,25,"some",3.333,0
"1816_1",4.56947,26,"none",2.076,1
"1816_1",4.56947,27,"some",1.959,1
"1816_1",4.56947,28,"all",1.712,1
"1816_1",4.56947,29,"none",1.538,0
"1816_1",4.56947,30,"some",1.234,0
"1816_2",4.8898,1,"all",1.527,1
"1816_2",4.8898,2,"all",1.459,1
"1816_2",4.8898,3,"some",4.952,0
"1816_2",4.8898,4,"some",1.266,1
"1816_2",4.8898,5,"all",1.57,1
"1816_2",4.8898,6,"some",3.099,0
"1816_2",4.8898,7,"some",5.794,0
"1816_2",4.8898,8,"none",1.102,1
"1816_2",4.8898,9,"some",2.446,1
"1816_2",4.8898,10,"none",7.377,0
"1816_2",4.8898,11,"some",1.334,0
"1816_2",4.8898,12,"all",0.779,1
"1816_2",4.8898,13,"none",7.007,0
"1816_2",4.8898,14,"none",2.217,0
"1816_2",4.8898,15,"none",1.73,1
"1816_2",4.8898,16,"some",2.03,1
"1816_2",4.8898,17,"some",4.924,0
"1816_2",4.8898,19,"all",1.679,0
"1816_2",4.8898,20,"all",2.028,1
"1816_2",4.8898,21,"some",1.168,0
"1816_2",4.8898,22,"none",14.503,1
"1816_2",4.8898,23,"none",2.815,0
"1816_2",4.8898,24,"none",6.622,0
"1816_2",4.8898,25,"none",2.508,0
"1816_2",4.8898,26,"some",1.115,1
"1816_2",4.8898,27,"all",1.579,0
"1816_2",4.8898,28,"none",4.02,0
"1816_2",4.8898,29,"all",2.407,1
"1816_3",4.61875,1,"none",2.696,1
"1816_3",4.61875,2,"none",2.629,1
"1816_3",4.61875,3,"none",1.844,1
"1816_3",4.61875,4,"none",1.942,1
"1816_3",4.61875,5,"all",1.979,1
"1816_3",4.61875,6,"some",1.875,0
"1816_3",4.61875,7,"all",3.052,1
"1816_3",4.61875,8,"all",1.173,1
"1816_3",4.61875,9,"none",2.109,1
"1816_3",4.61875,10,"none",3.683,1
"1816_3",4.61875,11,"all",4.301,1
"1816_3",4.61875,12,"some",2.104,1
"1816_3",4.61875,13,"all",1.449,1
"1816_3",4.61875,14,"some",2.358,1
"1816_3",4.61875,15,"all",1.929,1
"1816_3",4.61875,16,"some",2.046,1
"1816_3",4.61875,17,"some",2.648,0
"1816_3",4.61875,18,"none",4.324,1
"1816_3",4.61875,19,"all",1.336,0
"1816_3",4.61875,20,"some",2.105,1
"1816_3",4.61875,21,"some",3.763,1
"1816_3",4.61875,22,"none",1.867,0
"1816_3",4.61875,23,"none",4.286,0
"1816_3",4.61875,25,"all",3.279,0
"1816_3",4.61875,26,"some",4.258,0
"1816_3",4.61875,27,"some",4.798,0
"1816_3",4.61875,28,"some",3.376,0
"1816_3",4.61875,29,"none",1.819,1
"1816_3",4.61875,30,"all",1.309,0
"1816_4",5.81246,1,"all",2.096,1
"1816_4",5.81246,2,"none",6.582,1
"1816_4",5.81246,3,"none",1.346,1
"1816_4",5.81246,4,"all",1.054,1
"1816_4",5.81246,5,"some",2.707,0
"1816_4",5.81246,6,"some",1.421,0
"1816_4",5.81246,7,"all",1.172,1
"1816_4",5.81246,8,"all",2.642,1
"1816_4",5.81246,9,"all",1.322,0
"1816_4",5.81246,10,"all",1.285,1
"1816_4",5.81246,11,"none",1.449,1
"1816_4",5.81246,12,"some",1.408,0
"1816_4",5.81246,13,"some",1.234,0
"1816_4",5.81246,14,"none",1.856,1
"1816_4",5.81246,15,"some",2.142,0
"1816_4",5.81246,16,"none",1.461,1
"1816_4",5.81246,17,"none",1.728,1
"1816_4",5.81246,18,"all",1.045,1
"1816_4",5.81246,19,"none",1.31,1
"1816_4",5.81246,20,"none",1.993,1
"1816_4",5.81246,21,"none",1.375,1
"1816_4",5.81246,22,"some",1.135,0
"1816_4",5.81246,23,"all",1.059,1
"1816_4",5.81246,24,"all",1.248,1
"1816_4",5.81246,25,"all",1.423,1
"1816_4",5.81246,26,"some",1.137,0
"1816_4",5.81246,27,"none",1.222,1
"1816_4",5.81246,28,"some",1.118,0
"1816_4",5.81246,29,"some",1.549,0
"1816_4",5.81246,30,"some",1.069,0
"1816_5",4.13142,1,"none",2.501,1
"1816_5",4.13142,2,"some",1.66,0
"1816_5",4.13142,3,"some",2.045,0
"1816_5",4.13142,4,"some",1.845,0
"1816_5",4.13142,5,"all",1.747,1
"1816_5",4.13142,6,"none",1.307,1
"1816_5",4.13142,7,"all",1.121,1
"1816_5",4.13142,8,"none",1.266,1
"1816_5",4.13142,9,"none",2.008,1
"1816_5",4.13142,10,"some",2.174,0
"1816_5",4.13142,11,"all",1.525,1
"1816_5",4.13142,12,"all",1.711,1
"1816_5",4.13142,13,"some",1.987,0
"1816_5",4.13142,14,"some",1.493,0
"1816_5",4.13142,15,"all",0.874,1
"1816_5",4.13142,16,"all",1.729,1
"1816_5",4.13142,17,"all",1.55,1
"1816_5",4.13142,18,"some",1.669,0
"1816_5",4.13142,19,"none",1.664,1
"1816_5",4.13142,20,"some",2.433,0
"1816_5",4.13142,21,"none",4.708,1
"1816_5",4.13142,22,"none",2.11,1
"1816_5",4.13142,23,"some",1.68,0
"1816_5",4.13142,24,"all",1.177,1
"1816_5",4.13142,25,"all",2.267,1
"1816_5",4.13142,26,"some",1.5,0
"1816_5",4.13142,27,"none",3.798,1
"1816_5",4.13142,28,"none",1.216,1
"1816_5",4.13142,29,"none",1.706,1
"1816_5",4.13142,30,"all",1.191,1
"1816_5",4.13142,31,"all",1.197,0
"1816_6",4.47365,1,"some",5.358,0
"1816_6",4.47365,2,"none",4.375,0
"1816_6",4.47365,3,"some",4.906,0
"1816_6",4.47365,4,"some",3.068,0
"1816_6",4.47365,5,"all",4.24,1
"1816_6",4.47365,6,"none",4.939,1
"1816_6",4.47365,7,"none",4.916,0
"1816_6",4.47365,8,"all",6.308,1
"1816_6",4.47365,9,"all",3.406,1
"1816_6",4.47365,10,"all",3.228,1
"1816_6",4.47365,11,"none",4.172,0
"1816_6",4.47365,12,"none",4.885,0
"1816_6",4.47365,13,"some",2.026,0
"1816_6",4.47365,14,"some",3.692,0
"1816_6",4.47365,16,"none",4.208,0
"1816_6",4.47365,17,"some",4.925,0
"1816_6",4.47365,18,"all",4.448,1
"1816_6",4.47365,19,"none",11.671,0
"1816_6",4.47365,20,"some",13.764,1
"1816_6",4.47365,21,"all",13.677,1
"1816_6",4.47365,22,"none",3.378,0
"1816_6",4.47365,23,"all",7.12,0
"1816_6",4.47365,24,"some",1.316,0
"1816_6",4.47365,25,"all",5.619,0
"1816_6",4.47365,26,"some",3.93,0
"1816_6",4.47365,27,"all",2.969,1
"1816_6",4.47365,28,"none",3.508,0
"1816_6",4.47365,29,"all",2.146,1
"1816_6",4.47365,30,"none",4.027,0
"11016_1",4.63518,1,"none",11.061,0
"11016_1",4.63518,2,"some",1.9,0
"11016_1",4.63518,3,"all",2.069,1
"11016_1",4.63518,4,"all",1.856,1
"11016_1",4.63518,5,"all",2.007,1
"11016_1",4.63518,6,"all",2.04,1
"11016_1",4.63518,7,"none",1.845,0
"11016_1",4.63518,8,"all",5.308,1
"11016_1",4.63518,9,"none",5.671,0
"11016_1",4.63518,10,"none",1.13,0
"11016_1",4.63518,11,"some",9.586,1
"11016_1",4.63518,12,"none",1.042,0
"11016_1",4.63518,13,"some",4.332,0
"11016_1",4.63518,14,"none",7.431,0
"11016_1",4.63518,15,"some",1.053,0
"11016_1",4.63518,16,"some",1.617,0
"11016_1",4.63518,17,"all",3.009,1
"11016_1",4.63518,18,"none",1.053,0
"11016_1",4.63518,19,"some",2.143,1
"11016_1",4.63518,20,"none",1.046,0
"11016_1",4.63518,21,"some",1.835,0
"11016_1",4.63518,22,"some",1.524,0
"11016_1",4.63518,23,"some",1.574,0
"11016_1",4.63518,24,"all",1.417,1
"11016_1",4.63518,25,"none",0.979,0
"11016_1",4.63518,26,"some",3.773,1
"11016_1",4.63518,27,"all",2.163,1
"11016_1",4.63518,28,"all",2.039,1
"11016_1",4.63518,29,"none",2.773,0
"11016_1",4.63518,30,"all",1.14,1
"11016_2",3.70705,1,"some",3.024,0
"11016_2",3.70705,2,"some",2.366,0
"11016_2",3.70705,3,"none",2.239,0
"11016_2",3.70705,4,"some",4.336,0
"11016_2",3.70705,5,"none",1.598,0
"11016_2",3.70705,6,"all",2.429,1
"11016_2",3.70705,7,"some",1.739,0
"11016_2",3.70705,8,"all",1.782,1
"11016_2",3.70705,9,"all",2.028,1
"11016_2",3.70705,10,"all",2.695,1
"11016_2",3.70705,11,"all",2.626,1
"11016_2",3.70705,12,"some",2.103,0
"11016_2",3.70705,13,"all",3.015,1
"11016_2",3.70705,14,"some",2.039,0
"11016_2",3.70705,15,"all",1.874,1
"11016_2",3.70705,16,"some",2.552,0
"11016_2",3.70705,17,"all",3.664,1
"11016_2",3.70705,18,"some",2.554,0
"11016_2",3.70705,19,"some",2.037,0
"11016_2",3.70705,20,"all",4.778,1
"11016_2",3.70705,21,"some",1.709,0
"11016_2",3.70705,22,"none",2.563,0
"11016_2",3.70705,23,"none",2.617,0
"11016_2",3.70705,24,"none",1.752,0
"11016_2",3.70705,25,"none",2.657,0
"11016_2",3.70705,26,"none",2.001,0
"11016_2",3.70705,27,"none",1.778,0
"11016_2",3.70705,28,"none",2.187,0
"11016_2",3.70705,29,"none",1.907,0
"11016_2",3.70705,30,"all",1.629,1
"11016_3",3.45791,1,"none",4.78,0
"11016_3",3.45791,3,"some",4.002,0
"11016_3",3.45791,4,"none",4.803,0
"11016_3",3.45791,5,"none",5.802,0
"11016_3",3.45791,6,"none",5.174,0
"11016_3",3.45791,8,"none",3.871,0
"11016_3",3.45791,9,"some",3.967,0
"11016_3",3.45791,11,"some",3.258,0
"11016_3",3.45791,12,"some",4.068,0
"11016_3",3.45791,13,"some",1.186,0
"11016_3",3.45791,14,"none",3.948,1
"11016_3",3.45791,15,"all",4.264,1
"11016_3",3.45791,16,"all",2.115,1
"11016_3",3.45791,17,"all",4.017,1
"11016_3",3.45791,18,"none",3.533,0
"11016_3",3.45791,19,"all",5.195,1
"11016_3",3.45791,20,"some",3.835,0
"11016_3",3.45791,21,"some",1.511,0
"11016_3",3.45791,22,"none",4.032,0
"11016_3",3.45791,23,"none",1.037,0
"11016_3",3.45791,24,"all",2.655,1
"11016_3",3.45791,25,"all",2.662,0
"11016_3",3.45791,26,"some",2.75,0
"11016_3",3.45791,27,"some",2.934,0
"11016_3",3.45791,28,"all",1.737,1
"11016_3",3.45791,29,"all",1.743,0
"11016_3",3.45791,30,"none",2.014,0
"11016_4",4.51745,1,"some",1.537,0
"11016_4",4.51745,2,"none",1.698,0
"11016_4",4.51745,3,"all",1.255,1
"11016_4",4.51745,4,"some",5.054,1
"11016_4",4.51745,5,"all",0.69,1
"11016_4",4.51745,6,"none",3.092,1
"11016_4",4.51745,7,"none",2.293,1
"11016_4",4.51745,8,"none",2.694,1
"11016_4",4.51745,9,"none",3.685,1
"11016_4",4.51745,10,"some",2.282,1
"11016_4",4.51745,11,"none",1.785,0
"11016_4",4.51745,12,"some",3.821,1
"11016_4",4.51745,13,"some",3.007,1
"11016_4",4.51745,14,"all",4.57,1
"11016_4",4.51745,15,"none",3.083,1
"11016_4",4.51745,16,"all",3.998,1
"11016_4",4.51745,17,"all",1.51,1
"11016_4",4.51745,18,"none",2.753,1
"11016_4",4.51745,19,"some",3.503,1
"11016_4",4.51745,20,"some",2.809,1
"11016_4",4.51745,21,"some",3.384,1
"11016_4",4.51745,22,"all",2.428,1
"11016_4",4.51745,23,"all",1.247,1
"11016_4",4.51745,24,"all",2.738,1
"11016_4",4.51745,25,"some",1.241,1
"11016_4",4.51745,26,"some",2.293,1
"11016_4",4.51745,27,"none",1.959,1
"11016_4",4.51745,28,"all",1.769,1
"11016_4",4.51745,29,"none",2.88,1
"11016_4",4.51745,30,"all",0.916,1
"11016_5",3.45243,1,"all",7.352,1
"11016_5",3.45243,2,"all",6.762,1
"11016_5",3.45243,3,"some",7.739,0
"11016_5",3.45243,5,"none",4.204,0
"11016_5",3.45243,6,"some",3.72,0
"11016_5",3.45243,7,"none",2.482,0
"11016_5",3.45243,8,"some",2.828,0
"11016_5",3.45243,9,"all",10.135,1
"11016_5",3.45243,10,"none",1.45,0
"11016_5",3.45243,11,"none",3.269,0
"11016_5",3.45243,12,"none",4.157,0
"11016_5",3.45243,13,"some",4.165,0
"11016_5",3.45243,14,"none",5.078,1
"11016_5",3.45243,15,"some",2.255,0
"11016_5",3.45243,16,"all",5.157,1
"11016_5",3.45243,17,"all",3.931,1
"11016_5",3.45243,18,"some",2.504,0
"11016_5",3.45243,19,"none",3.542,0
"11016_5",3.45243,20,"all",2.229,1
"11016_5",3.45243,21,"all",1.659,1
"11016_5",3.45243,22,"none",1.674,0
"11016_5",3.45243,23,"none",1.962,0
"11016_5",3.45243,24,"all",8.27,1
"11016_5",3.45243,25,"some",2.484,0
"11016_5",3.45243,26,"none",2.715,0
"11016_5",3.45243,27,"some",3.578,0
"11016_5",3.45243,28,"all",2.175,1
"11016_5",3.45243,29,"some",4.402,0
"11016_5",3.45243,30,"some",2.152,0
"11016_6",4.57495,1,"none",7.436,0
"11016_6",4.57495,2,"none",2.186,0
"11016_6",4.57495,3,"none",3.31,0
"11016_6",4.57495,4,"all",6.152,1
"11016_6",4.57495,5,"all",4.901,1
"11016_6",4.57495,6,"some",6.023,0
"11016_6",4.57495,7,"some",3.324,0
"11016_6",4.57495,8,"all",1.57,1
"11016_6",4.57495,9,"all",1.738,1
"11016_6",4.57495,10,"none",1.519,0
"11016_6",4.57495,11,"some",5.682,0
"11016_6",4.57495,12,"none",2.29,0
"11016_6",4.57495,13,"all",1.629,1
"11016_6",4.57495,14,"some",1.393,0
"11016_6",4.57495,15,"some",5.1,0
"11016_6",4.57495,16,"none",3.28,0
"11016_6",4.57495,17,"all",7.645,1
"11016_6",4.57495,18,"none",5.596,0
"11016_6",4.57495,19,"all",2.564,1
"11016_6",4.57495,20,"some",2.561,0
"11016_6",4.57495,21,"all",2.559,1
"11016_6",4.57495,22,"some",2.426,0
"11016_6",4.57495,23,"all",2.411,1
"11016_6",4.57495,24,"none",1.575,0
"11016_6",4.57495,25,"none",2.066,0
"11016_6",4.57495,26,"all",2.009,1
"11016_6",4.57495,27,"some",3.227,0
"11016_6",4.57495,28,"some",3.081,0
"11016_6",4.57495,29,"some",2.27,0
"11016_6",4.57495,30,"none",1.971,0
"11016_78&$""",4.48734,1,"all",12.358,1
"11016_78&$""",4.48734,2,"all",1.589,1
"11016_78&$""",4.48734,3,"none",13.464,0
"11016_78&$""",4.48734,4,"some",3.436,1
"11016_78&$""",4.48734,5,"none",5.346,0
"11016_78&$""",4.48734,6,"none",3.701,0
"11016_78&$""",4.48734,7,"all",3.07,1
"11016_78&$""",4.48734,8,"all",1.43,1
"11016_78&$""",4.48734,9,"some",1.641,1
"11016_78&$""",4.48734,10,"some",1.705,1
"11016_78&$""",4.48734,11,"all",3.718,1
"11016_78&$""",4.48734,12,"some",2.573,1
"11016_78&$""",4.48734,13,"none",2.667,0
"11016_78&$""",4.48734,14,"all",2.416,1
"11016_78&$""",4.48734,15,"all",4.031,1
"11016_78&$""",4.48734,16,"some",1.45,1
"11016_78&$""",4.48734,17,"none",3.624,0
"11016_78&$""",4.48734,18,"none",3.764,0
"11016_78&$""",4.48734,19,"none",3.962,0
"11016_78&$""",4.48734,20,"all",1.361,1
"11016_78&$""",4.48734,21,"some",7.375,0
"11016_78&$""",4.48734,22,"some",2.209,1
"11016_78&$""",4.48734,23,"some",1.905,1
"11016_78&$""",4.48734,24,"none",4.1,0
"11016_78&$""",4.48734,25,"all",2.221,1
"11016_78&$""",4.48734,26,"none",1.244,0
"11016_78&$""",4.48734,27,"some",2.976,1
"11016_78&$""",4.48734,28,"all",1.521,1
"11016_78&$""",4.48734,29,"none",2.301,0
"11016_78&$""",4.48734,30,"some",2.427,1
"11016_8",4.79671,1,"none",3.332,1
"11016_8",4.79671,2,"none",2.453,1
"11016_8",4.79671,3,"none",2.368,1
"11016_8",4.79671,4,"some",2.109,0
"11016_8",4.79671,5,"all",1.928,1
"11016_8",4.79671,6,"some",1.795,0
"11016_8",4.79671,7,"none",1.141,0
"11016_8",4.79671,8,"all",2.337,1
"11016_8",4.79671,9,"some",2.641,0
"11016_8",4.79671,10,"all",2.825,0
"11016_8",4.79671,11,"none",5.471,1
"11016_8",4.79671,12,"some",1.446,0
"11016_8",4.79671,13,"all",1.258,1
"11016_8",4.79671,14,"none",3.074,1
"11016_8",4.79671,15,"all",3.512,1
"11016_8",4.79671,16,"none",2.261,1
"11016_8",4.79671,17,"all",1.419,1
"11016_8",4.79671,18,"all",3.112,1
"11016_8",4.79671,19,"some",13.379,0
"11016_8",4.79671,20,"none",3.509,1
"11016_8",4.79671,21,"all",1.462,1
"11016_8",4.79671,22,"some",3.883,0
"11016_8",4.79671,23,"some",2.405,0
"11016_8",4.79671,24,"none",2.977,1
"11016_8",4.79671,25,"some",3.697,0
"11016_8",4.79671,26,"all",2.651,1
"11016_8",4.79671,27,"all",11.83,1
"11016_8",4.79671,28,"some",2.428,0
"11016_8",4.79671,29,"none",4.98,1
"11016_8",4.79671,30,"some",1.591,0
"11016_9",4.1807,1,"some",2.718,0
"11016_9",4.1807,2,"none",4.093,1
"11016_9",4.1807,3,"all",2.022,1
"11016_9",4.1807,4,"some",1.942,0
"11016_9",4.1807,5,"some",2.414,0
"11016_9",4.1807,6,"none",1.708,1
"11016_9",4.1807,7,"some",4.008,1
"11016_9",4.1807,8,"some",2.1,1
"11016_9",4.1807,9,"some",2.894,1
"11016_9",4.1807,10,"none",1.359,1
"11016_9",4.1807,11,"none",1.795,1
"11016_9",4.1807,12,"all",1.702,1
"11016_9",4.1807,13,"none",1.525,1
"11016_9",4.1807,14,"none",1.268,1
"11016_9",4.1807,15,"all",1.817,1
"11016_9",4.1807,16,"none",1.8,1
"11016_9",4.1807,17,"all",1.499,1
"11016_9",4.1807,18,"all",1.182,1
"11016_9",4.1807,19,"some",1.278,0
"11016_9",4.1807,20,"all",1.346,1
"11016_9",4.1807,21,"all",1.988,1
"11016_9",4.1807,22,"some",1.448,1
"11016_9",4.1807,23,"some",1.193,1
"11016_9",4.1807,24,"some",2.32,1
"11016_9",4.1807,25,"all",1.754,1
"11016_9",4.1807,26,"none",1.723,1
"11016_9",4.1807,27,"none",2.128,1
"11016_9",4.1807,28,"all",1.296,1
"11016_9",4.1807,29,"all",1.665,1
"11016_9",4.1807,30,"none",3.602,1
"11016_10",4.45722,1,"some",5.923,0
"11016_10",4.45722,2,"some",3.923,0
"11016_10",4.45722,3,"none",2.182,0
"11016_10",4.45722,4,"all",2.103,1
"11016_10",4.45722,5,"none",1.361,0
"11016_10",4.45722,6,"none",3.235,0
"11016_10",4.45722,7,"none",2.773,0
"11016_10",4.45722,8,"all",1.497,1
"11016_10",4.45722,9,"none",1.23,0
"11016_10",4.45722,10,"some",1.258,0
"11016_10",4.45722,11,"all",1.643,1
"11016_10",4.45722,12,"all",1.327,1
"11016_10",4.45722,13,"some",0.786,0
"11016_10",4.45722,14,"some",2.329,0
"11016_10",4.45722,15,"none",2.86,0
"11016_10",4.45722,16,"all",2.091,1
"11016_10",4.45722,17,"none",1.926,0
"11016_10",4.45722,18,"all",2.201,1
"11016_10",4.45722,19,"none",3.869,0
"11016_10",4.45722,20,"all",5.278,1
"11016_10",4.45722,21,"all",1.859,1
"11016_10",4.45722,22,"some",3.889,0
"11016_10",4.45722,23,"none",1.118,0
"11016_10",4.45722,24,"all",1.849,1
"11016_10",4.45722,25,"some",1.659,0
"11016_10",4.45722,26,"some",1.782,0
"11016_10",4.45722,27,"some",0.861,0
"11016_10",4.45722,28,"none",5.683,0
"11016_10",4.45722,29,"some",0.658,0
"11016_10",4.45722,30,"all",1.156,1
"11016_11",4.75838,1,"all",2.1,1
"11016_11",4.75838,2,"none",1.085,0
"11016_11",4.75838,3,"all",1.64,1
"11016_11",4.75838,4,"none",3.731,0
"11016_11",4.75838,5,"all",1.147,1
"11016_11",4.75838,6,"all",0.732,1
"11016_11",4.75838,7,"some",2.113,0
"11016_11",4.75838,8,"some",2.399,0
"11016_11",4.75838,9,"none",1.137,0
"11016_11",4.75838,10,"none",1.195,0
"11016_11",4.75838,11,"all",0.599,1
"11016_11",4.75838,12,"some",2.937,0
"11016_11",4.75838,13,"some",1.443,0
"11016_11",4.75838,14,"none",1.29,0
"11016_11",4.75838,15,"none",0.484,1
"11016_11",4.75838,16,"none",2.012,0
"11016_11",4.75838,17,"none",1.027,0
"11016_11",4.75838,18,"none",1.061,0
"11016_11",4.75838,19,"all",1.089,1
"11016_11",4.75838,20,"some",0.794,0
"11016_11",4.75838,21,"none",1.423,0
"11016_11",4.75838,22,"all",0.783,1
"11016_11",4.75838,23,"some",0.671,0
"11016_11",4.75838,24,"all",0.969,1
"11016_11",4.75838,25,"some",2.377,0
"11016_11",4.75838,26,"some",1.405,0
"11016_11",4.75838,27,"some",0.854,0
"11016_11",4.75838,28,"some",0.88,0
"11016_11",4.75838,29,"all",0.595,1
"11016_11",4.75838,30,"all",1.53,1
"11016_12",4.69268,1,"some",3.322,0
"11016_12",4.69268,2,"some",3.834,0
"11016_12",4.69268,3,"some",2.664,0
"11016_12",4.69268,4,"none",3.246,1
"11016_12",4.69268,5,"all",2.289,1
"11016_12",4.69268,6,"some",2.882,0
"11016_12",4.69268,7,"some",2.593,0
"11016_12",4.69268,8,"all",1.254,1
"11016_12",4.69268,9,"all",1.48,1
"11016_12",4.69268,10,"none",2.323,1
"11016_12",4.69268,11,"none",2.818,1
"11016_12",4.69268,12,"all",1.871,1
"11016_12",4.69268,13,"some",2.519,0
"11016_12",4.69268,14,"none",3.924,1
"11016_12",4.69268,15,"none",3.478,1
"11016_12",4.69268,16,"none",2.25,1
"11016_12",4.69268,17,"some",1.124,0
"11016_12",4.69268,18,"all",1.702,1
"11016_12",4.69268,19,"some",3.731,0
"11016_12",4.69268,20,"all",1.753,1
"11016_12",4.69268,21,"none",3.374,1
"11016_12",4.69268,22,"all",2.162,1
"11016_12",4.69268,23,"none",2.434,1
"11016_12",4.69268,24,"all",3.286,1
"11016_12",4.69268,25,"all",0.94,1
"11016_12",4.69268,26,"some",2.099,0
"11016_12",4.69268,27,"some",1.628,0
"11016_12",4.69268,28,"none",1.228,1
"11016_12",4.69268,29,"all",1.411,1
"11016_12",4.69268,30,"none",6.292,1
"Rs1",3.72074,1,"all",4.034,1
"Rs1",3.72074,2,"all",2.756,1
"Rs1",3.72074,3,"none",1.65,0
"Rs1",3.72074,4,"none",1.289,0
"Rs1",3.72074,5,"some",2.704,0
"Rs1",3.72074,6,"some",1.536,0
"Rs1",3.72074,7,"all",1.645,0
"Rs1",3.72074,8,"none",3.101,0
"Rs1",3.72074,9,"none",3.107,0
"Rs1",3.72074,10,"none",1.537,0
"Rs1",3.72074,11,"some",3.932,0
"Rs1",3.72074,12,"some",2.153,0
"Rs1",3.72074,13,"all",3.435,1
"Rs1",3.72074,15,"none",1.191,0
"Rs1",3.72074,16,"none",6.609,0
"Rs1",3.72074,17,"none",5.744,0
"Rs1",3.72074,18,"all",0.822,1
"Rs1",3.72074,19,"all",1.106,1
"Rs1",3.72074,20,"some",1.245,0
"Rs1",3.72074,21,"some",3.831,0
"Rs1",3.72074,22,"none",2.862,0
"Rs1",3.72074,23,"none",1.361,0
"Rs1",3.72074,24,"some",1.287,0
"Rs1",3.72074,25,"all",1.305,1
"Rs1",3.72074,26,"all",8.718,1
"Rs1",3.72074,27,"some",10.484,0
"Rs1",3.72074,28,"all",1.111,1
"Rs1",3.72074,29,"all",2.174,1
"Rs1",3.72074,30,"some",2.392,0
"Rs2",4.47639,1,"all",6.45,1
"Rs2",4.47639,2,"some",1.374,0
"Rs2",4.47639,3,"none",5.854,0
"Rs2",4.47639,4,"all",0.711,1
"Rs2",4.47639,5,"all",1.237,1
"Rs2",4.47639,6,"some",1.015,0
"Rs2",4.47639,7,"none",4.369,0
"Rs2",4.47639,8,"some",1.061,0
"Rs2",4.47639,9,"none",0.896,0
"Rs2",4.47639,10,"none",1.107,0
"Rs2",4.47639,11,"all",1.72,0
"Rs2",4.47639,12,"none",1.457,0
"Rs2",4.47639,13,"none",2.291,0
"Rs2",4.47639,14,"all",3.29,0
"Rs2",4.47639,15,"none",3.613,0
"Rs2",4.47639,16,"some",1.518,0
"Rs2",4.47639,17,"some",0.839,0
"Rs2",4.47639,18,"some",1.214,0
"Rs2",4.47639,19,"some",1.363,0
"Rs2",4.47639,20,"some",1.34,0
"Rs2",4.47639,22,"all",1.069,0
"Rs2",4.47639,23,"all",2.97,1
"Rs2",4.47639,24,"all",1.746,1
"Rs2",4.47639,25,"some",2.844,0
"Rs2",4.47639,26,"none",1.22,0
"Rs2",4.47639,27,"none",1.782,0
"Rs2",4.47639,29,"all",1.071,1
"Rs2",4.47639,30,"all",0.625,1
"Rs3",4.47639,1,"all",0.669,1
"Rs3",4.47639,2,"none",2.916,1
"Rs3",4.47639,3,"none",2.303,1
"Rs3",4.47639,4,"some",3.494,0
"Rs3",4.47639,5,"some",0.706,0
"Rs3",4.47639,6,"all",0.998,1
"Rs3",4.47639,7,"none",2.086,1
"Rs3",4.47639,8,"some",1.355,0
"Rs3",4.47639,9,"none",1.421,1
"Rs3",4.47639,10,"none",1.076,1
"Rs3",4.47639,11,"some",0.936,0
"Rs3",4.47639,12,"all",0.53,0
"Rs3",4.47639,13,"some",0.626,0
"Rs3",4.47639,14,"all",3.046,1
"Rs3",4.47639,15,"none",1.825,1
"Rs3",4.47639,16,"all",1.01,1
"Rs3",4.47639,17,"all",3.278,1
"Rs3",4.47639,18,"none",2.042,1
"Rs3",4.47639,19,"some",2.36,0
"Rs3",4.47639,20,"none",2.259,1
"Rs3",4.47639,21,"some",1.165,0
"Rs3",4.47639,22,"all",3.729,1
"Rs3",4.47639,23,"all",0.886,1
"Rs3",4.47639,24,"all",0.724,1
"Rs3",4.47639,25,"all",1.646,1
"Rs3",4.47639,26,"none",2.741,1
"Rs3",4.47639,27,"some",1.056,0
"Rs3",4.47639,28,"some",1.456,1
"Rs3",4.47639,29,"some",1.856,0
"Rs3",4.47639,30,"none",1.064,1
"Rs4",4.16701,2,"some",3.968,0
"Rs4",4.16701,3,"some",7.175,0
"Rs4",4.16701,4,"none",9.29,0
"Rs4",4.16701,5,"some",2.822,0
"Rs4",4.16701,6,"some",2.59,0
"Rs4",4.16701,7,"none",4.233,0
"Rs4",4.16701,8,"none",1.306,0
"Rs4",4.16701,9,"some",2.343,0
"Rs4",4.16701,10,"none",2.841,0
"Rs4",4.16701,11,"none",3.007,0
"Rs4",4.16701,12,"all",3.174,1
"Rs4",4.16701,13,"all",3.177,1
"Rs4",4.16701,14,"some",2.078,0
"Rs4",4.16701,15,"some",1.526,0
"Rs4",4.16701,16,"all",2.98,1
"Rs4",4.16701,17,"all",3.492,0
"Rs4",4.16701,18,"some",1.5,1
"Rs4",4.16701,19,"all",2.161,0
"Rs4",4.16701,20,"some",6.566,1
"Rs4",4.16701,21,"none",2.905,0
"Rs4",4.16701,22,"none",4.644,0
"Rs4",4.16701,23,"all",3.1,1
"Rs4",4.16701,24,"all",4.309,1
"Rs4",4.16701,25,"none",2.307,0
"Rs4",4.16701,26,"all",2.136,1
"Rs4",4.16701,27,"all",3.002,1
"Rs4",4.16701,28,"some",2.965,0
"Rs4",4.16701,29,"none",5.177,0
"Rs4",4.16701,30,"all",3.837,1
"Rs5",4.93908,1,"none",2.048,1
"Rs5",4.93908,2,"all",2.092,1
"Rs5",4.93908,3,"none",2.575,1
"Rs5",4.93908,4,"all",4.309,1
"Rs5",4.93908,5,"none",3.324,1
"Rs5",4.93908,6,"none",2.085,1
"Rs5",4.93908,7,"all",1.397,1
"Rs5",4.93908,8,"none",1.965,1
"Rs5",4.93908,9,"all",2.124,1
"Rs5",4.93908,10,"none",2.225,1
"Rs5",4.93908,11,"none",1.601,1
"Rs5",4.93908,12,"some",2.326,1
"Rs5",4.93908,13,"all",1.447,1
"Rs5",4.93908,14,"all",1.682,1
"Rs5",4.93908,15,"some",1.797,1
"Rs5",4.93908,16,"none",1.219,1
"Rs5",4.93908,17,"some",2.71,1
"Rs5",4.93908,18,"all",1.198,1
"Rs5",4.93908,19,"some",1.805,1
"Rs5",4.93908,20,"some",2.021,1
"Rs5",4.93908,21,"some",1.2,1
"Rs5",4.93908,22,"all",1.46,1
"Rs5",4.93908,23,"some",1.58,1
"Rs5",4.93908,24,"none",3.413,1
"Rs5",4.93908,25,"some",0.98,1
"Rs5",4.93908,26,"none",1.267,1
"Rs5",4.93908,27,"all",2.121,1
"Rs5",4.93908,28,"some",1.623,1
"Rs5",4.93908,29,"some",1.225,1
"Rs5",4.93908,30,"all",0.981,1
"Rs6",4.7666,1,"some",9.674,0
"Rs6",4.7666,2,"all",2.442,1
"Rs6",4.7666,3,"none",2.725,1
"Rs6",4.7666,4,"some",2.16,0
"Rs6",4.7666,5,"none",2.132,1
"Rs6",4.7666,6,"some",3.031,0
"Rs6",4.7666,7,"some",2.061,0
"Rs6",4.7666,8,"some",6.281,0
"Rs6",4.7666,9,"all",2.32,1
"Rs6",4.7666,10,"none",3.672,1
"Rs6",4.7666,11,"some",2.111,0
"Rs6",4.7666,12,"none",2.21,1
"Rs6",4.7666,13,"none",3.139,1
"Rs6",4.7666,14,"all",1.016,1
"Rs6",4.7666,15,"all",1.777,1
"Rs6",4.7666,16,"all",1.136,1
"Rs6",4.7666,17,"all",1.609,1
"Rs6",4.7666,18,"some",3.386,0
"Rs6",4.7666,19,"all",1.551,1
"Rs6",4.7666,20,"none",2.793,1
"Rs6",4.7666,21,"all",1.448,1
"Rs6",4.7666,22,"none",3.467,1
"Rs6",4.7666,23,"all",2.102,1
"Rs6",4.7666,24,"none",3.008,1
"Rs6",4.7666,25,"some",2.203,0
"Rs6",4.7666,26,"none",2.013,1
"Rs6",4.7666,27,"all",1.447,1
"Rs6",4.7666,28,"all",1.452,0
"Rs6",4.7666,29,"some",1.278,0
"Rs6",4.7666,30,"some",2.423,0
"Rs7",3.43874,2,"some",8.304,0
"Rs7",3.43874,4,"none",6.741,0
"Rs7",3.43874,5,"all",4.679,1
"Rs7",3.43874,6,"all",4.478,1
"Rs7",3.43874,7,"none",3.338,0
"Rs7",3.43874,8,"some",3.356,0
"Rs7",3.43874,9,"all",3.437,1
"Rs7",3.43874,10,"all",3.593,1
"Rs7",3.43874,11,"some",3.87,0
"Rs7",3.43874,12,"all",3.902,1
"Rs7",3.43874,13,"all",8.328,1
"Rs7",3.43874,14,"some",7.23,0
"Rs7",3.43874,16,"all",2.021,1
"Rs7",3.43874,17,"none",2.587,0
"Rs7",3.43874,18,"some",6.973,0
"Rs7",3.43874,19,"none",10.214,0
"Rs7",3.43874,20,"none",5.184,0
"Rs7",3.43874,21,"none",3.258,0
"Rs7",3.43874,23,"none",2.106,0
"Rs7",3.43874,24,"none",2.26,0
"Rs7",3.43874,25,"none",3.302,0
"Rs7",3.43874,26,"some",5.625,0
"Rs7",3.43874,27,"some",5.446,0
"Rs7",3.43874,28,"all",2.73,1
"Rs7",3.43874,29,"all",7.9,0
"11316_1",3.79466,1,"some",5.92,0
"11316_1",3.79466,2,"all",3.782,0
"11316_1",3.79466,3,"some",4.267,1
"11316_1",3.79466,4,"some",2.082,0
"11316_1",3.79466,5,"some",4.842,1
"11316_1",3.79466,6,"some",3.546,1
"11316_1",3.79466,7,"none",12.609,0
"11316_1",3.79466,8,"none",4.695,1
"11316_1",3.79466,9,"some",5.343,0
"11316_1",3.79466,10,"all",6.488,1
"11316_1",3.79466,11,"none",6.56,0
"11316_1",3.79466,12,"none",6.279,0
"11316_1",3.79466,13,"none",2.284,0
"11316_1",3.79466,14,"none",2.099,0
"11316_1",3.79466,15,"none",7.965,0
"11316_1",3.79466,16,"all",5.643,1
"11316_1",3.79466,17,"some",2.926,1
"11316_1",3.79466,18,"none",1.73,0
"11316_1",3.79466,19,"all",4.223,0
"11316_1",3.79466,20,"none",4.384,0
"11316_1",3.79466,21,"all",3.127,1
"11316_1",3.79466,22,"some",2.565,0
"11316_1",3.79466,23,"some",2.441,0
"11316_1",3.79466,24,"none",6.901,0
"11316_1",3.79466,25,"some",3.937,1
"11316_1",3.79466,26,"all",4.222,1
"11316_1",3.79466,27,"all",1.554,1
"11316_1",3.79466,28,"all",2.845,1
"11316_1",3.79466,29,"all",4.392,1
"11316_1",3.79466,30,"all",2.495,0
"11316_2",3.03901,2,"all",8.901,1
"11316_2",3.03901,4,"all",7.827,0
"11316_2",3.03901,5,"some",4.964,0
"11316_2",3.03901,6,"none",10.99,1
"11316_2",3.03901,7,"some",4.21,0
"11316_2",3.03901,8,"all",6.726,1
"11316_2",3.03901,9,"none",4.473,0
"11316_2",3.03901,10,"some",3.143,0
"11316_2",3.03901,11,"none",11.766,0
"11316_2",3.03901,12,"none",3.14,0
"11316_2",3.03901,13,"none",5.585,0
"11316_2",3.03901,14,"none",6.721,0
"11316_2",3.03901,15,"some",5.257,0
"11316_2",3.03901,16,"all",4.309,1
"11316_2",3.03901,17,"some",2.735,0
"11316_2",3.03901,18,"all",5.49,0
"11316_2",3.03901,19,"some",1.712,0
"11316_2",3.03901,23,"all",5.564,0
"11316_2",3.03901,24,"none",5.326,0
"11316_2",3.03901,25,"all",7.163,0
"11316_2",3.03901,26,"some",3.26,0
"11316_2",3.03901,27,"all",2.472,1
"11316_2",3.03901,28,"all",2.414,1
"11316_2",3.03901,29,"none",7.738,0
"11316_2",3.03901,30,"some",6.758,1
"11316_3",3.55099,1,"all",5.805,1
"11316_3",3.55099,2,"all",1.797,1
"11316_3",3.55099,3,"all",1.604,1
"11316_3",3.55099,4,"none",1.549,0
"11316_3",3.55099,5,"all",2.015,1
"11316_3",3.55099,6,"all",1.438,1
"11316_3",3.55099,8,"all",2.22,1
"11316_3",3.55099,9,"all",4.312,1
"11316_3",3.55099,11,"all",1.327,1
"11316_3",3.55099,12,"some",2.497,0
"11316_3",3.55099,13,"some",5.675,0
"11316_3",3.55099,14,"some",2.367,0
"11316_3",3.55099,15,"all",3.213,1
"11316_3",3.55099,17,"none",4.585,1
"11316_3",3.55099,18,"some",3.204,0
"11316_3",3.55099,19,"none",3.472,1
"11316_3",3.55099,20,"none",5.719,1
"11316_3",3.55099,21,"some",2.199,0
"11316_3",3.55099,22,"some",4.474,0
"11316_3",3.55099,23,"some",2.853,0
"11316_3",3.55099,24,"some",3.919,0
"11316_3",3.55099,25,"all",2.544,1
"11316_3",3.55099,26,"none",4.037,1
"11316_3",3.55099,27,"none",6.259,1
"11316_3",3.55099,28,"some",2.944,0
"11316_3",3.55099,29,"none",7.434,0
"11316_3",3.55099,30,"some",2.621,0
"11316_4",4.45448,1,"none",5.675,1
"11316_4",4.45448,2,"some",3.185,1
"11316_4",4.45448,3,"none",3.514,1
"11316_4",4.45448,4,"some",3.376,1
"11316_4",4.45448,5,"all",2.333,1
"11316_4",4.45448,6,"all",5.135,0
"11316_4",4.45448,7,"none",2.146,1
"11316_4",4.45448,8,"none",1.939,1
"11316_4",4.45448,9,"some",1.718,1
"11316_4",4.45448,10,"all",2.245,1
"11316_4",4.45448,11,"none",2.816,1
"11316_4",4.45448,12,"some",2.007,1
"11316_4",4.45448,13,"all",2.545,1
"11316_4",4.45448,14,"some",2.427,1
"11316_4",4.45448,15,"none",2.378,1
"11316_4",4.45448,16,"some",2.943,1
"11316_4",4.45448,17,"all",2.059,1
"11316_4",4.45448,18,"all",2.042,1
"11316_4",4.45448,19,"some",1.977,1
"11316_4",4.45448,20,"all",4.17,1
"11316_4",4.45448,21,"none",3.54,1
"11316_4",4.45448,22,"some",1.366,1
"11316_4",4.45448,23,"none",4.153,1
"11316_4",4.45448,24,"none",3.601,1
"11316_4",4.45448,25,"all",2.3,1
"11316_4",4.45448,26,"some",3.529,1
"11316_4",4.45448,27,"none",1.775,1
"11316_4",4.45448,28,"some",1.779,1
"11316_4",4.45448,29,"all",3.368,1
"11316_4",4.45448,30,"all",1.375,1
"11316_5",4.64613,1,"all",0.757,1
"11316_5",4.64613,2,"all",1.021,1
"11316_5",4.64613,3,"all",1.105,1
"11316_5",4.64613,4,"some",1.172,0
"11316_5",4.64613,5,"some",1.691,0
"11316_5",4.64613,6,"all",0.869,1
"11316_5",4.64613,7,"some",0.817,0
"11316_5",4.64613,8,"none",2.184,0
"11316_5",4.64613,9,"none",2.395,0
"11316_5",4.64613,10,"none",2.5,0
"11316_5",4.64613,11,"all",2.97,1
"11316_5",4.64613,12,"all",0.943,1
"11316_5",4.64613,13,"some",0.842,0
"11316_5",4.64613,15,"some",0.743,0
"11316_5",4.64613,16,"none",1.819,0
"11316_5",4.64613,17,"some",1.954,1
"11316_5",4.64613,18,"none",0.755,1
"11316_5",4.64613,19,"none",1.42,0
"11316_5",4.64613,20,"some",2.749,0
"11316_5",4.64613,21,"some",6.05,0
"11316_5",4.64613,22,"none",2.396,0
"11316_5",4.64613,23,"some",2.42,0
"11316_5",4.64613,24,"all",1.229,1
"11316_5",4.64613,25,"none",2.566,0
"11316_5",4.64613,26,"some",1.103,0
"11316_5",4.64613,27,"all",1.144,1
"11316_5",4.64613,28,"all",2.968,1
"11316_5",4.64613,29,"all",2.5,1
"11316_5",4.64613,30,"none",2.472,0
"11316_6",3.06092,1,"none",2.738,0
"11316_6",3.06092,2,"some",4.583,1
"11316_6",3.06092,3,"some",1.533,1
"11316_6",3.06092,4,"all",3.849,0
"11316_6",3.06092,1,"some",1.208,1
"11316_6",3.06092,2,"none",3.368,0
"11316_6",3.06092,3,"some",2.632,1
"11316_6",3.06092,4,"some",1.775,1
"11316_6",3.06092,5,"all",4.096,1
"11316_6",3.06092,6,"none",5.104,0
"11316_6",3.06092,7,"all",2.223,1
"11316_6",3.06092,8,"all",1.544,1
"11316_6",3.06092,9,"all",4.65,0
"11316_6",3.06092,10,"all",5.609,0
"11316_6",3.06092,11,"all",1.979,1
"11316_6",3.06092,12,"none",4.462,0
"11316_6",3.06092,13,"all",2.799,0
"11316_6",3.06092,14,"some",3.422,1
"11316_6",3.06092,15,"none",1.054,0
"11316_6",3.06092,16,"none",1.06,0
"11316_6",3.06092,17,"some",1.003,0
"11316_6",3.06092,18,"some",3.018,0
"11316_6",3.06092,19,"some",3.025,0
"11316_6",3.06092,20,"some",3.03,0
"11316_6",3.06092,21,"some",0.466,0
"11316_6",3.06092,22,"some",2.044,1
"11316_6",3.06092,23,"none",1.181,0
"11316_6",3.06092,24,"some",1.428,0
"11316_6",3.06092,26,"all",3.463,0
"11316_6",3.06092,25,"all",3.456,1
"11316_6",3.06092,27,"all",1.988,1
"11316_6",3.06092,28,"none",3.965,0
"11316_6",3.06092,29,"none",1.614,0
"11316_6",3.06092,30,"none",2.309,0
"11316_6",3.06092,31,"none",2.316,0
"Rs8",5.18823,1,"none",12.475,1
"Rs8",5.18823,2,"some",13.341,1
"Rs8",5.18823,3,"none",2.414,1
"Rs8",5.18823,4,"some",3.485,1
"Rs8",5.18823,5,"some",2.111,1
"Rs8",5.18823,6,"none",2.814,1
"Rs8",5.18823,7,"some",1.619,1
"Rs8",5.18823,8,"all",2.849,1
"Rs8",5.18823,9,"none",4.94,1
"Rs8",5.18823,10,"none",5.124,1
"Rs8",5.18823,11,"none",3.972,1
"Rs8",5.18823,12,"some",2.733,1
"Rs8",5.18823,13,"some",2.116,1
"Rs8",5.18823,14,"all",1.394,1
"Rs8",5.18823,15,"all",3.86,1
"Rs8",5.18823,16,"none",13.045,1
"Rs8",5.18823,17,"some",4.158,1
"Rs8",5.18823,18,"none",10.235,1
"Rs8",5.18823,19,"all",1.642,1
"Rs8",5.18823,20,"all",3.274,1
"Rs8",5.18823,21,"all",1.77,1
"Rs8",5.18823,22,"all",3.422,1
"Rs8",5.18823,23,"none",2.956,1
"Rs8",5.18823,24,"some",2.407,1
"Rs8",5.18823,25,"some",2.008,1
"Rs8",5.18823,26,"all",2.532,1
"Rs8",5.18823,27,"all",5.028,1
"Rs8",5.18823,28,"none",2.214,1
"Rs8",5.18823,29,"all",1.89,1
"Rs8",5.18823,30,"some",2.014,1
"Rs9",3.90691,1,"none",2.433,0
"Rs9",3.90691,2,"some",1.887,1
"Rs9",3.90691,3,"some",8.965,0
"Rs9",3.90691,4,"some",5.315,1
"Rs9",3.90691,5,"none",5.246,0
"Rs9",3.90691,6,"some",1.581,0
"Rs9",3.90691,7,"some",10.981,0
"Rs9",3.90691,8,"some",2.465,0
"Rs9",3.90691,9,"some",9.237,1
"Rs9",3.90691,10,"none",2.037,0
"Rs9",3.90691,11,"none",2.845,0
"Rs9",3.90691,12,"none",10.973,0
"Rs9",3.90691,13,"all",6.172,1
"Rs9",3.90691,14,"none",2.359,0
"Rs9",3.90691,16,"some",2.056,0
"Rs9",3.90691,18,"all",2.513,1
"Rs9",3.90691,19,"some",6.694,0
"Rs9",3.90691,20,"none",14.428,1
"Rs9",3.90691,22,"some",6.514,0
"Rs9",3.90691,23,"all",7.532,1
"Rs9",3.90691,24,"all",1.581,1
"Rs9",3.90691,25,"none",1.626,0
"Rs9",3.90691,26,"all",6.299,1
"Rs9",3.90691,27,"all",6.304,0
"Rs9",3.90691,28,"none",3.028,0
"Rs9",3.90691,29,"all",12.763,1
"11316_7",4.04381,1,"none",1.3,0
"11316_7",4.04381,2,"none",0.832,0
"11316_7",4.04381,3,"none",3.034,0
"11316_7",4.04381,4,"none",2.114,1
"11316_7",4.04381,5,"some",1.391,1
"11316_7",4.04381,6,"none",2.158,0
"11316_7",4.04381,7,"all",1.2,1
"11316_7",4.04381,10,"some",2.274,1
"11316_7",4.04381,11,"none",4.366,0
"11316_7",4.04381,12,"none",1.273,1
"11316_7",4.04381,13,"some",2.045,1
"11316_7",4.04381,14,"all",4.107,1
"11316_7",4.04381,15,"all",1.909,1
"11316_7",4.04381,16,"all",1.528,1
"11316_7",4.04381,17,"some",8.743,0
"11316_7",4.04381,18,"some",4.53,1
"11316_7",4.04381,19,"some",8.89,0
"11316_7",4.04381,20,"all",3.309,1
"11316_7",4.04381,21,"some",3.433,0
"11316_7",4.04381,22,"some",1.844,0
"11316_7",4.04381,23,"all",2.314,1
"11316_7",4.04381,24,"none",1.574,0
"11316_7",4.04381,25,"some",3.556,0
"11316_7",4.04381,26,"all",3.113,0
"11316_7",4.04381,27,"all",1.622,1
"11316_7",4.04381,28,"some",4.351,0
"11316_7",4.04381,29,"none",2.819,0
"11316_7",4.04381,30,"all",2.421,0
"Rs10",3.61944,1,"some",2.447,1
"Rs10",3.61944,2,"none",2.345,0
"Rs10",3.61944,3,"all",3.879,1
"Rs10",3.61944,4,"all",2.95,1
"Rs10",3.61944,5,"all",2.62,1
"Rs10",3.61944,6,"none",1.407,0
"Rs10",3.61944,7,"some",1.571,0
"Rs10",3.61944,8,"some",4.482,0
"Rs10",3.61944,9,"all",1.706,1
"Rs10",3.61944,10,"none",1.664,0
"Rs10",3.61944,11,"some",1.803,0
"Rs10",3.61944,12,"all",9.559,1
"Rs10",3.61944,13,"none",2.419,0
"Rs10",3.61944,14,"some",2.386,0
"Rs10",3.61944,15,"some",1.859,0
"Rs10",3.61944,16,"all",1.588,1
"Rs10",3.61944,17,"all",2.166,1
"Rs10",3.61944,18,"none",2.057,0
"Rs10",3.61944,19,"none",9.71,0
"Rs10",3.61944,20,"all",1.853,1
"Rs10",3.61944,21,"all",1.448,1
"Rs10",3.61944,22,"some",1.902,0
"Rs10",3.61944,23,"none",3.041,0
"Rs10",3.61944,24,"none",5.528,0
"Rs10",3.61944,25,"none",1.592,0
"Rs10",3.61944,26,"some",1.687,0
"Rs10",3.61944,27,"some",1.597,0
"Rs10",3.61944,28,"some",2.251,0
"Rs10",3.61944,29,"all",2.188,1
"Rs10",3.61944,30,"none",2.313,0
"11316_8",4.98015,2,"all",1.704,1
"11316_8",4.98015,3,"some",2.623,0
"11316_8",4.98015,4,"none",3.735,1
"11316_8",4.98015,6,"all",2.071,1
"11316_8",4.98015,7,"none",2.082,1
"11316_8",4.98015,8,"all",1.05,1
"11316_8",4.98015,9,"all",1.48,1
"11316_8",4.98015,10,"all",1.619,1
"11316_8",4.98015,11,"some",2.267,0
"11316_8",4.98015,12,"some",1.515,0
"11316_8",4.98015,13,"some",2.467,1
"11316_8",4.98015,14,"all",0.95,1
"11316_8",4.98015,15,"none",2.189,1
"11316_8",4.98015,16,"none",1.418,1
"11316_8",4.98015,17,"all",1.621,1
"11316_8",4.98015,18,"none",6.981,1
"11316_8",4.98015,19,"all",2.14,1
"11316_8",4.98015,20,"all",1.574,1
"11316_8",4.98015,21,"some",3.217,1
"11316_8",4.98015,22,"some",3.005,1
"11316_8",4.98015,23,"none",1.922,1
"11316_8",4.98015,24,"none",4.373,1
"11316_8",4.98015,25,"none",2.369,1
"11316_8",4.98015,26,"some",2.54,1
"11316_8",4.98015,27,"all",1.538,1
"11316_8",4.98015,28,"some",3.352,1
"11316_8",4.98015,29,"some",6.479,1
"11316_8",4.98015,30,"none",3.916,1
"11316_9",3.27447,1,"all",4.238,1
"11316_9",3.27447,2,"none",4.486,0
"11316_9",3.27447,3,"some",4.17,1
"11316_9",3.27447,4,"none",4.65,0
"11316_9",3.27447,5,"some",6.366,0
"11316_9",3.27447,6,"all",5.189,1
"11316_9",3.27447,7,"all",5.17,1
"11316_9",3.27447,8,"all",4.475,1
"11316_9",3.27447,9,"none",4.065,0
"11316_9",3.27447,10,"all",4.57,1
"11316_9",3.27447,11,"some",4.132,0
"11316_9",3.27447,12,"some",5.604,0
"11316_9",3.27447,13,"some",2.117,0
"11316_9",3.27447,14,"all",3.896,1
"11316_9",3.27447,15,"all",3.522,1
"11316_9",3.27447,16,"some",4.169,0
"11316_9",3.27447,17,"all",4.212,1
"11316_9",3.27447,18,"some",8.559,0
"11316_9",3.27447,19,"some",2.8,0
"11316_9",3.27447,20,"some",3.255,0
"11316_9",3.27447,21,"none",2.719,0
"11316_9",3.27447,22,"none",2.268,0
"11316_9",3.27447,23,"all",2.696,1
"11316_9",3.27447,24,"none",2.619,0
"11316_9",3.27447,25,"none",2.236,0
"11316_9",3.27447,26,"none",2.469,1
"11316_9",3.27447,27,"none",1.369,0
"11316_9",3.27447,28,"none",1.777,1
"11316_9",3.27447,29,"some",3.317,0
"11316_10",4.97194,1,"all",1.595,0
"11316_10",4.97194,2,"all",3.303,1
"11316_10",4.97194,3,"some",5.981,0
"11316_10",4.97194,4,"some",3.149,0
"11316_10",4.97194,5,"none",6.332,1
"11316_10",4.97194,6,"none",2.042,1
"11316_10",4.97194,7,"some",3.69,1
"11316_10",4.97194,8,"all",2.125,1
"11316_10",4.97194,9,"some",6.411,1
"11316_10",4.97194,10,"all",1.35,1
"11316_10",4.97194,11,"none",3.362,1
"11316_10",4.97194,12,"all",1.572,1
"11316_10",4.97194,13,"none",2.915,1
"11316_10",4.97194,14,"none",3.269,1
"11316_10",4.97194,15,"some",1.664,0
"11316_10",4.97194,16,"all",1.474,1
"11316_10",4.97194,17,"all",2.822,1
"11316_10",4.97194,18,"some",1.628,0
"11316_10",4.97194,19,"some",5.818,0
"11316_10",4.97194,20,"some",2.041,0
"11316_10",4.97194,21,"none",1.81,1
"11316_10",4.97194,22,"none",3.512,1
"11316_10",4.97194,23,"all",1.972,1
"11316_10",4.97194,24,"none",1.873,1
"11316_10",4.97194,25,"some",1.516,0
"11316_10",4.97194,26,"some",2.172,0
"11316_10",4.97194,27,"none",1.752,1
"11316_10",4.97194,28,"all",3.849,1
"11316_10",4.97194,29,"all",1.185,1
"11316_10",4.97194,30,"none",6.156,1
"11316_11",4.97194,1,"none",2.862,1
"11316_11",4.97194,2,"some",5.676,1
"11316_11",4.97194,3,"some",6.111,1
"11316_11",4.97194,4,"none",2.573,1
"11316_11",4.97194,5,"none",2.435,1
"11316_11",4.97194,6,"some",2.661,1
"11316_11",4.97194,7,"none",2.69,1
"11316_11",4.97194,8,"all",3.028,0
"11316_11",4.97194,9,"none",2.056,0
"11316_11",4.97194,10,"none",4.505,1
"11316_11",4.97194,11,"none",2.563,1
"11316_11",4.97194,12,"all",1.879,1
"11316_11",4.97194,13,"none",2.133,0
"11316_11",4.97194,14,"some",3.826,1
"11316_11",4.97194,15,"none",2.677,1
"11316_11",4.97194,16,"all",1.926,1
"11316_11",4.97194,17,"all",3.561,1
"11316_11",4.97194,18,"all",1.763,1
"11316_11",4.97194,19,"some",2.645,1
"11316_11",4.97194,20,"none",1.983,1
"11316_11",4.97194,21,"some",2.247,1
"11316_11",4.97194,22,"some",2.497,1
"11316_11",4.97194,23,"some",1.863,1
"11316_11",4.97194,24,"some",2.186,1
"11316_11",4.97194,25,"all",1.08,1
"11316_11",4.97194,26,"all",2.129,1
"11316_11",4.97194,27,"some",1.867,1
"11316_11",4.97194,28,"all",0.74,1
"11316_11",4.97194,29,"all",1.52,1
"11316_11",4.97194,30,"all",1.62,1
"11416_1",3.91786,1,"none",9.762,1
"11416_1",3.91786,3,"none",1.494,0
"11416_1",3.91786,4,"some",1.481,0
"11416_1",3.91786,5,"some",7.716,0
"11416_1",3.91786,6,"none",1.386,0
"11416_1",3.91786,8,"all",3.154,1
"11416_1",3.91786,9,"all",1.203,1
"11416_1",3.91786,10,"all",2.316,1
"11416_1",3.91786,11,"some",2.236,0
"11416_1",3.91786,13,"none",14.339,1
"11416_1",3.91786,14,"none",3.273,0
"11416_1",3.91786,16,"all",11.543,1
"11416_1",3.91786,17,"all",13.025,1
"11416_1",3.91786,18,"some",4.726,0
"11416_1",3.91786,19,"some",4.522,1
"11416_1",3.91786,21,"some",4.604,0
"11416_1",3.91786,23,"none",8.098,1
"11416_1",3.91786,25,"some",2.288,0
"11416_1",3.91786,26,"some",2.538,0
"11416_1",3.91786,28,"some",2.549,0
"11416_1",3.91786,27,"some",2.545,0
"11416_2",4.99932,1,"all",1.497,1
"11416_2",4.99932,2,"all",1.954,1
"11416_2",4.99932,3,"none",3.249,1
"11416_2",4.99932,4,"all",1.769,1
"11416_2",4.99932,5,"none",1.899,0
"11416_2",4.99932,6,"all",1.103,1
"11416_2",4.99932,7,"some",2.212,1
"11416_2",4.99932,8,"some",1.737,1
"11416_2",4.99932,9,"all",1.325,1
"11416_2",4.99932,10,"none",1.486,0
"11416_2",4.99932,11,"some",2.102,1
"11416_2",4.99932,12,"all",1.437,1
"11416_2",4.99932,14,"none",1.936,0
"11416_2",4.99932,15,"some",5.172,0
"11416_2",4.99932,16,"some",1.639,1
"11416_2",4.99932,17,"some",2.309,0
"11416_2",4.99932,18,"none",1.643,0
"11416_2",4.99932,19,"some",2.931,1
"11416_2",4.99932,20,"all",2.442,1
"11416_2",4.99932,21,"none",1.622,0
"11416_2",4.99932,22,"all",2.302,1
"11416_2",4.99932,23,"some",2.127,0
"11416_2",4.99932,24,"some",1.953,0
"11416_2",4.99932,25,"none",1.62,0
"11416_2",4.99932,26,"none",1.899,0
"11416_2",4.99932,27,"all",1.695,1
"11416_2",4.99932,28,"none",1.683,0
"11416_2",4.99932,29,"none",1.983,0
"11416_2",4.99932,30,"some",1.645,1
"11416_3",4.29843,1,"some",1.024,0
"11416_3",4.29843,2,"some",1.483,0
"11416_3",4.29843,3,"none",3.405,0
"11416_3",4.29843,6,"some",1.323,0
"11416_3",4.29843,7,"some",2.22,0
"11416_3",4.29843,8,"all",2.176,1
"11416_3",4.29843,9,"some",1.514,0
"11416_3",4.29843,10,"some",1.357,0
"11416_3",4.29843,11,"all",1.703,1
"11416_3",4.29843,12,"all",1.178,1
"11416_3",4.29843,13,"none",1.857,0
"11416_3",4.29843,14,"some",1.142,0
"11416_3",4.29843,15,"none",2.431,1
"11416_3",4.29843,16,"all",1.516,1
"11416_3",4.29843,17,"all",1.64,1
"11416_3",4.29843,18,"none",1.946,0
"11416_3",4.29843,19,"all",2.39,1
"11416_3",4.29843,20,"all",1.198,1
"11416_3",4.29843,21,"none",1.965,0
"11416_3",4.29843,22,"some",3.239,0
"11416_3",4.29843,23,"none",4.52,0
"11416_3",4.29843,24,"none",1.389,0
"11416_3",4.29843,25,"all",1.511,1
"11416_3",4.29843,26,"none",1.876,0
"11416_3",4.29843,27,"all",1.93,0
"11416_3",4.29843,28,"some",0.945,0
"11416_3",4.29843,29,"none",3.224,1
"11416_3",4.29843,30,"all",2.105,1
"11416_4",4.74196,1,"some",5.039,1
"11416_4",4.74196,2,"all",2.525,1
"11416_4",4.74196,3,"all",2.303,1
"11416_4",4.74196,4,"none",5.015,1
"11416_4",4.74196,5,"none",2.474,1
"11416_4",4.74196,6,"all",2.231,1
"11416_4",4.74196,7,"some",3.375,1
"11416_4",4.74196,8,"none",2.522,1
"11416_4",4.74196,9,"all",1.28,1
"11416_4",4.74196,10,"all",2.04,1
"11416_4",4.74196,11,"some",1.987,1
"11416_4",4.74196,12,"some",2.766,1
"11416_4",4.74196,13,"some",1.308,1
"11416_4",4.74196,14,"none",2.565,1
"11416_4",4.74196,15,"all",1.66,1
"11416_4",4.74196,17,"some",1.672,1
"11416_4",4.74196,18,"none",2.675,1
"11416_4",4.74196,19,"some",2.315,1
"11416_4",4.74196,20,"some",14.361,1
"11416_4",4.74196,21,"none",2.315,1
"11416_4",4.74196,22,"none",1.987,1
"11416_4",4.74196,23,"none",2.765,1
"11416_4",4.74196,24,"none",2.364,1
"11416_4",4.74196,25,"all",3.793,1
"11416_4",4.74196,26,"all",1.866,1
"11416_4",4.74196,27,"some",1.21,1
"11416_4",4.74196,28,"none",1.631,1
"11416_4",4.74196,29,"all",0.878,1
"11416_4",4.74196,30,"some",2.339,0
"11416_5",3.97536,1,"some",5.431,0
"11416_5",3.97536,2,"all",11.037,1
"11416_5",3.97536,3,"none",2.716,0
"11416_5",3.97536,4,"none",12.429,0
"11416_5",3.97536,5,"none",1.56,1
"11416_5",3.97536,6,"some",1.976,0
"11416_5",3.97536,7,"none",9.151,0
"11416_5",3.97536,8,"all",2.389,0
"11416_5",3.97536,9,"all",2.287,1
"11416_5",3.97536,10,"none",1.592,0
"11416_5",3.97536,11,"none",4.083,0
"11416_5",3.97536,12,"none",0.874,0
"11416_5",3.97536,13,"some",6.852,1
"11416_5",3.97536,14,"some",1.319,0
"11416_5",3.97536,15,"all",2.811,1
"11416_5",3.97536,17,"all",1.089,0
"11416_5",3.97536,18,"some",4.174,0
"11416_5",3.97536,19,"some",3.815,0
"11416_5",3.97536,20,"all",3.104,0
"11416_5",3.97536,21,"none",5.281,1
"11416_5",3.97536,22,"all",2.594,1
"11416_5",3.97536,23,"all",2.601,0
"11416_5",3.97536,24,"some",2.293,0
"11416_5",3.97536,25,"all",1.736,1
"11416_5",3.97536,26,"none",1.199,1
"11416_5",3.97536,27,"all",3.101,1
"11416_5",3.97536,28,"some",1.251,0
"11416_5",3.97536,29,"none",2.522,0
"11416_5",3.97536,30,"some",7.622,0
"11516_1",5.86174,1,"some",2.07,0
"11516_1",5.86174,2,"some",1.604,0
"11516_1",5.86174,3,"none",4.104,1
"11516_1",5.86174,4,"all",1.816,1
"11516_1",5.86174,5,"all",1.874,0
"11516_1",5.86174,6,"none",2.577,1
"11516_1",5.86174,7,"some",1.79,1
"11516_1",5.86174,8,"some",3.06,1
"11516_1",5.86174,9,"some",0.797,1
"11516_1",5.86174,10,"none",1.577,1
"11516_1",5.86174,11,"some",1.762,1
"11516_1",5.86174,12,"some",1.545,1
"11516_1",5.86174,13,"all",2.773,0
"11516_1",5.86174,14,"some",1.815,1
"11516_1",5.86174,15,"all",0.939,1
"11516_1",5.86174,16,"some",2.061,1
"11516_1",5.86174,17,"all",1.361,1
"11516_1",5.86174,18,"none",1.013,1
"11516_1",5.86174,19,"some",1.964,1
"11516_1",5.86174,20,"none",1.07,1
"11516_1",5.86174,21,"none",1.279,1
"11516_1",5.86174,22,"none",1.428,1
"11516_1",5.86174,24,"all",1.214,1
"11516_1",5.86174,25,"all",0.842,1
"11516_1",5.86174,26,"all",1.267,1
"11516_1",5.86174,27,"none",2.377,1
"11516_1",5.86174,29,"all",1.608,1
"11516_1",5.86174,30,"all",1.129,1
"11516_2",3.97262,1,"none",1.512,0
"11516_2",3.97262,2,"none",2.466,1
"11516_2",3.97262,3,"all",5.108,1
"11516_2",3.97262,4,"none",2.527,1
"11516_2",3.97262,5,"all",6.341,1
"11516_2",3.97262,6,"none",1.788,0
"11516_2",3.97262,7,"all",1.834,1
"11516_2",3.97262,8,"some",1.71,1
"11516_2",3.97262,9,"none",1.143,0
"11516_2",3.97262,10,"all",1.131,0
"11516_2",3.97262,11,"none",1.341,1
"11516_2",3.97262,12,"some",1.545,0
"11516_2",3.97262,13,"some",1.722,0
"11516_2",3.97262,14,"all",2.361,1
"11516_2",3.97262,15,"all",1.002,1
"11516_2",3.97262,16,"some",1.453,0
"11516_2",3.97262,17,"all",1.557,1
"11516_2",3.97262,18,"all",2.164,1
"11516_2",3.97262,19,"none",2.127,1
"11516_2",3.97262,20,"all",4.335,1
"11516_2",3.97262,21,"none",3.305,1
"11516_2",3.97262,22,"none",4.534,1
"11516_2",3.97262,23,"some",3.319,0
"11516_2",3.97262,24,"none",2.549,1
"11516_2",3.97262,25,"some",2.75,0
"11516_2",3.97262,26,"some",2.77,1
"11516_2",3.97262,27,"some",3.73,0
"11516_2",3.97262,28,"some",2.875,0
"11516_2",3.97262,29,"some",3.273,0
"11516_2",3.97262,30,"all",6.822,1
"11516_3",3.47981,1,"none",8.55,0
"11516_3",3.47981,2,"some",1.849,0
"11516_3",3.47981,3,"some",1.726,0
"11516_3",3.47981,4,"some",2.328,0
"11516_3",3.47981,5,"all",2.47,1
"11516_3",3.47981,6,"none",2.742,0
"11516_3",3.47981,7,"none",1.773,0
"11516_3",3.47981,8,"some",2.5,0
"11516_3",3.47981,9,"all",2.263,1
"11516_3",3.47981,10,"all",2.686,1
"11516_3",3.47981,11,"none",1.458,0
"11516_3",3.47981,12,"all",1.979,1
"11516_3",3.47981,13,"all",2.416,0
"11516_3",3.47981,14,"none",2.645,0
"11516_3",3.47981,15,"all",1.775,0
"11516_3",3.47981,16,"all",2.461,1
"11516_3",3.47981,17,"all",5.644,0
"11516_3",3.47981,18,"some",2.59,1
"11516_3",3.47981,19,"some",1.957,0
"11516_3",3.47981,20,"none",2.85,1
"11516_3",3.47981,21,"none",6.062,1
"11516_3",3.47981,22,"some",4.251,0
"11516_3",3.47981,23,"none",4.427,1
"11516_3",3.47981,24,"none",2.239,1
"11516_3",3.47981,25,"all",3.07,0
"11516_3",3.47981,26,"all",1.424,0
"11516_3",3.47981,27,"some",4.306,0
"11516_3",3.47981,28,"some",7.052,0
"11516_3",3.47981,29,"none",3.709,1
"11516_3",3.47981,30,"some",7.67,0
"11516_4",5.22382,1,"some",1.697,0
"11516_4",5.22382,2,"some",5.239,0
"11516_4",5.22382,3,"none",1.753,0
"11516_4",5.22382,4,"all",1.747,1
"11516_4",5.22382,5,"some",1.418,0
"11516_4",5.22382,6,"some",0.968,0
"11516_4",5.22382,7,"none",1.177,0
"11516_4",5.22382,8,"none",1.672,0
"11516_4",5.22382,9,"all",2.139,1
"11516_4",5.22382,10,"some",2.958,0
"11516_4",5.22382,12,"some",1.633,0
"11516_4",5.22382,13,"all",1.16,1
"11516_4",5.22382,14,"some",4.994,0
"11516_4",5.22382,15,"all",5.784,1
"11516_4",5.22382,16,"none",1.717,0
"11516_4",5.22382,17,"none",1.55,0
"11516_4",5.22382,18,"none",7.707,1
"11516_4",5.22382,19,"all",0.913,1
"11516_4",5.22382,20,"all",0.959,1
"11516_4",5.22382,21,"some",5.628,1
"11516_4",5.22382,22,"all",1.519,1
"11516_4",5.22382,23,"none",2.651,1
"11516_4",5.22382,24,"all",1.727,1
"11516_4",5.22382,25,"none",5.874,0
"11516_4",5.22382,26,"some",1.385,0
"11516_4",5.22382,27,"none",12.956,1
"11516_4",5.22382,28,"some",2.315,1
"11516_4",5.22382,29,"none",1.691,1
"11516_4",5.22382,30,"all",4.576,1
"11516_5",3.72348,1,"some",4.06,0
"11516_5",3.72348,2,"all",5.04,1
"11516_5",3.72348,3,"all",6.206,1
"11516_5",3.72348,4,"all",5.242,1
"11516_5",3.72348,5,"none",2.013,0
"11516_5",3.72348,6,"some",2.083,0
"11516_5",3.72348,7,"none",2.569,0
"11516_5",3.72348,8,"none",1.82,0
"11516_5",3.72348,9,"none",3.077,0
"11516_5",3.72348,10,"none",1.975,0
"11516_5",3.72348,11,"all",2.006,1
"11516_5",3.72348,12,"some",3.141,0
"11516_5",3.72348,13,"all",4.226,1
"11516_5",3.72348,14,"some",1.851,0
"11516_5",3.72348,15,"all",1.557,1
"11516_5",3.72348,16,"some",1.717,0
"11516_5",3.72348,17,"some",1.947,0
"11516_5",3.72348,18,"all",2.179,1
"11516_5",3.72348,19,"some",6.768,0
"11516_5",3.72348,20,"none",1.566,0
"11516_5",3.72348,21,"none",1.065,0
"11516_5",3.72348,22,"some",2.99,0
"11516_5",3.72348,23,"all",1.102,0
"11516_5",3.72348,24,"none",3.693,1
"11516_5",3.72348,25,"none",3.138,1
"11516_5",3.72348,26,"some",2.369,0
"11516_5",3.72348,27,"none",4.143,0
"11516_5",3.72348,28,"some",4.847,1
"11516_5",3.72348,29,"all",6.84,1
"11516_5",3.72348,30,"all",1.562,0
"11516_6",4.52567,1,"none",11.3,0
"11516_6",4.52567,2,"none",5.055,0
"11516_6",4.52567,3,"all",2.414,1
"11516_6",4.52567,4,"all",2.307,1
"11516_6",4.52567,5,"none",1.754,0
"11516_6",4.52567,6,"some",3.129,0
"11516_6",4.52567,7,"none",1.923,0
"11516_6",4.52567,8,"all",2.999,1
"11516_6",4.52567,9,"none",1.448,0
"11516_6",4.52567,10,"all",2.343,1
"11516_6",4.52567,11,"none",2.249,0
"11516_6",4.52567,12,"all",1.401,1
"11516_6",4.52567,13,"some",2.44,0
"11516_6",4.52567,14,"all",8.468,1
"11516_6",4.52567,15,"some",4.962,1
"11516_6",4.52567,16,"some",2.898,1
"11516_6",4.52567,17,"some",1.679,1
"11516_6",4.52567,18,"all",1.606,1
"11516_6",4.52567,19,"some",3.19,0
"11516_6",4.52567,20,"all",2.827,1
"11516_6",4.52567,21,"none",1.219,0
"11516_6",4.52567,22,"all",1.728,1
"11516_6",4.52567,23,"none",3.118,0
"11516_6",4.52567,24,"all",3.409,1
"11516_6",4.52567,25,"some",2.083,1
"11516_6",4.52567,26,"none",2.773,0
"11516_6",4.52567,27,"some",1.49,1
"11516_6",4.52567,28,"some",1.627,1
"11516_6",4.52567,29,"none",2.773,0
"11516_6",4.52567,30,"some",2.699,1
"11516_7",4.69815,1,"all",1.475,1
"11516_7",4.69815,2,"none",12.919,1
"11516_7",4.69815,3,"none",2.903,1
"11516_7",4.69815,4,"some",3.947,0
"11516_7",4.69815,5,"all",1.826,1
"11516_7",4.69815,6,"some",2.963,0
"11516_7",4.69815,7,"some",2.015,0
"11516_7",4.69815,8,"some",1.48,0
"11516_7",4.69815,9,"some",1.355,0
"11516_7",4.69815,10,"all",1.81,1
"11516_7",4.69815,11,"some",1.653,0
"11516_7",4.69815,12,"none",2.102,1
"11516_7",4.69815,13,"none",1.337,1
"11516_7",4.69815,14,"none",1.358,1
"11516_7",4.69815,15,"none",2.517,1
"11516_7",4.69815,16,"all",1.791,1
"11516_7",4.69815,17,"none",1.254,1
"11516_7",4.69815,18,"all",1.08,1
"11516_7",4.69815,19,"all",0.958,1
"11516_7",4.69815,20,"some",0.984,0
"11516_7",4.69815,21,"all",1.555,1
"11516_7",4.69815,22,"all",1.4,1
"11516_7",4.69815,23,"some",2.484,0
"11516_7",4.69815,24,"none",1.505,0
"11516_7",4.69815,25,"none",1.888,1
"11516_7",4.69815,26,"all",0.885,1
"11516_7",4.69815,27,"all",1.407,1
"11516_7",4.69815,28,"some",2.154,0
"11516_7",4.69815,29,"some",1.219,0
"11516_7",4.69815,30,"none",2.134,1
"11516_8",3.40862,1,"none",7.61,0
"11516_8",3.40862,2,"some",11.925,1
"11516_8",3.40862,3,"some",2.639,1
"11516_8",3.40862,4,"some",1.434,1
"11516_8",3.40862,5,"none",2.476,0
"11516_8",3.40862,6,"all",1.465,1
"11516_8",3.40862,7,"all",1.866,1
"11516_8",3.40862,8,"all",3.656,1
"11516_8",3.40862,9,"all",1.738,1
"11516_8",3.40862,10,"none",5.2,1
"11516_8",3.40862,11,"none",4.743,1
"11516_8",3.40862,12,"all",1.851,1
"11516_8",3.40862,13,"none",1.528,1
"11516_8",3.40862,14,"all",2.456,1
"11516_8",3.40862,15,"some",4.813,1
"11516_8",3.40862,16,"some",1.261,1
"11516_8",3.40862,17,"all",1.831,1
"11516_8",3.40862,18,"some",1.522,1
"11516_8",3.40862,19,"all",11.54,1
"11516_8",3.40862,20,"none",2.889,1
"11516_8",3.40862,21,"all",3.084,1
"11516_8",3.40862,22,"all",3.104,1
"11516_8",3.40862,23,"some",1.629,0
"11516_8",3.40862,24,"none",4.601,1
"11516_8",3.40862,25,"some",2.925,1
"11516_8",3.40862,26,"none",4.715,1
"11516_8",3.40862,27,"some",5.423,1
"11516_8",3.40862,28,"none",3.368,1
"11516_8",3.40862,29,"some",1.659,1
"11516_9",4.29295,1,"none",7.122,0
"11516_9",4.29295,2,"all",13.95,1
"11516_9",4.29295,3,"none",4.35,0
"11516_9",4.29295,4,"all",5.913,1
"11516_9",4.29295,5,"some",3.695,0
"11516_9",4.29295,6,"none",4.947,0
"11516_9",4.29295,7,"some",3.877,0
"11516_9",4.29295,8,"all",14.888,1
"11516_9",4.29295,9,"all",3.294,1
"11516_9",4.29295,10,"some",4.799,0
"11516_9",4.29295,11,"some",5.583,0
"11516_9",4.29295,12,"none",2.466,0
"11516_9",4.29295,13,"some",2.148,0
"11516_9",4.29295,14,"some",1.528,0
"11516_9",4.29295,15,"none",2.662,0
"11516_9",4.29295,16,"all",2.295,1
"11516_9",4.29295,17,"all",2.619,1
"11516_9",4.29295,18,"all",3.01,1
"11516_9",4.29295,19,"all",2.083,1
"11516_9",4.29295,20,"all",2.827,1
"11516_9",4.29295,21,"all",6.978,1
"11516_9",4.29295,22,"some",3.359,0
"11516_9",4.29295,23,"some",1.85,0
"11516_9",4.29295,24,"none",2.905,0
"11516_9",4.29295,25,"some",2.019,0
"11516_9",4.29295,26,"none",3.262,0
"11516_9",4.29295,27,"none",3.053,0
"11516_9",4.29295,28,"none",3.12,0
"11516_9",4.29295,29,"none",2.383,0
"11516_9",4.29295,30,"some",2.617,0
"11516_10",5.86721,1,"some",5.765,0
"11516_10",5.86721,2,"some",1.989,0
"11516_10",5.86721,3,"some",1.103,0
"11516_10",5.86721,4,"none",3.389,0
"11516_10",5.86721,5,"none",3.653,1
"11516_10",5.86721,6,"all",1.241,1
"11516_10",5.86721,7,"some",1.726,0
"11516_10",5.86721,8,"none",3.467,1
"11516_10",5.86721,9,"all",1.064,1
"11516_10",5.86721,10,"all",1.65,1
"11516_10",5.86721,11,"none",3.793,1
"11516_10",5.86721,12,"none",2.983,1
"11516_10",5.86721,13,"none",2.088,1
"11516_10",5.86721,14,"none",1.815,1
"11516_10",5.86721,15,"none",2.521,1
"11516_10",5.86721,16,"some",2.319,1
"11516_10",5.86721,17,"all",2.042,1
"11516_10",5.86721,18,"some",2.012,1
"11516_10",5.86721,19,"some",2.125,1
"11516_10",5.86721,20,"all",1.24,1
"11516_10",5.86721,21,"none",3.153,1
"11516_10",5.86721,22,"some",1.971,1
"11516_10",5.86721,23,"all",1.67,0
"11516_10",5.86721,24,"all",1.705,1
"11516_10",5.86721,25,"all",1.578,1
"11516_10",5.86721,26,"some",2.358,1
"11516_10",5.86721,27,"all",1.398,1
"11516_10",5.86721,28,"none",2.906,1
"11516_10",5.86721,29,"all",1.318,1
"11516_10",5.86721,30,"some",1.766,1
"11516_11",5.33333,1,"none",3.763,1
"11516_11",5.33333,2,"all",2.401,1
"11516_11",5.33333,3,"none",1.842,0
"11516_11",5.33333,4,"all",3.84,0
"11516_11",5.33333,5,"some",1.551,0
"11516_11",5.33333,6,"some",1.85,0
"11516_11",5.33333,7,"some",1.735,0
"11516_11",5.33333,8,"none",1.446,0
"11516_11",5.33333,9,"all",2.82,1
"11516_11",5.33333,10,"all",1.159,1
"11516_11",5.33333,11,"all",1.594,1
"11516_11",5.33333,12,"none",1.768,0
"11516_11",5.33333,13,"none",1.462,0
"11516_11",5.33333,14,"none",2.798,0
"11516_11",5.33333,15,"some",2.587,0
"11516_11",5.33333,16,"all",1.691,1
"11516_11",5.33333,17,"some",5.548,0
"11516_11",5.33333,18,"none",1.328,0
"11516_11",5.33333,19,"some",1.644,0
"11516_11",5.33333,20,"some",1.831,0
"11516_11",5.33333,21,"none",1.034,0
"11516_11",5.33333,22,"some",1.551,0
"11516_11",5.33333,23,"none",1.477,0
"11516_11",5.33333,24,"some",1.575,0
"11516_11",5.33333,25,"all",1.351,1
"11516_11",5.33333,26,"all",1.536,1
"11516_11",5.33333,27,"all",2.354,1
"11516_11",5.33333,28,"all",1.924,1
"11516_11",5.33333,29,"some",2.398,0
"11516_11",5.33333,30,"none",1.766,0
"11516_12",5.46749,1,"some",2.468,0
"11516_12",5.46749,2,"none",4.44,1
"11516_12",5.46749,3,"all",1.098,1
"11516_12",5.46749,4,"all",1.825,1
"11516_12",5.46749,5,"some",2.521,1
"11516_12",5.46749,6,"none",3.848,1
"11516_12",5.46749,7,"some",1.153,1
"11516_12",5.46749,8,"all",1.41,1
"11516_12",5.46749,9,"all",3.196,1
"11516_12",5.46749,10,"some",1.444,1
"11516_12",5.46749,11,"all",1.949,1
"11516_12",5.46749,12,"all",1.023,1
"11516_12",5.46749,13,"none",4.113,1
"11516_12",5.46749,14,"none",2.718,1
"11516_12",5.46749,15,"some",2.682,1
"11516_12",5.46749,16,"some",2.638,1
"11516_12",5.46749,17,"none",1.808,1
"11516_12",5.46749,18,"all",1.32,1
"11516_12",5.46749,19,"some",2.895,1
"11516_12",5.46749,20,"some",1.01,1
"11516_12",5.46749,21,"none",4.363,1
"11516_12",5.46749,22,"none",1.983,1
"11516_12",5.46749,24,"all",1.011,1
"11516_12",5.46749,25,"all",1.285,1
"11516_12",5.46749,26,"none",1.876,1
"11516_12",5.46749,27,"none",1.419,1
"11516_12",5.46749,28,"none",2.571,1
"11516_12",5.46749,29,"some",1.723,1
"11516_12",5.46749,30,"all",1.644,1
"11516_13",5.92197,1,"some",4.208,0
"11516_13",5.92197,2,"some",2.459,0
"11516_13",5.92197,3,"all",1.819,1
"11516_13",5.92197,4,"all",3.504,1
"11516_13",5.92197,5,"none",2.686,1
"11516_13",5.92197,6,"all",1.066,1
"11516_13",5.92197,7,"some",1.451,0
"11516_13",5.92197,8,"some",2.053,0
"11516_13",5.92197,9,"all",1.165,1
"11516_13",5.92197,10,"some",1.389,0
"11516_13",5.92197,11,"none",2.074,1
"11516_13",5.92197,12,"none",1.707,1
"11516_13",5.92197,13,"none",2.219,1
"11516_13",5.92197,14,"all",1.524,1
"11516_13",5.92197,15,"some",0.934,0
"11516_13",5.92197,16,"none",1.006,1
"11516_13",5.92197,17,"all",1.591,1
"11516_13",5.92197,18,"some",1.561,0
"11516_13",5.92197,19,"some",1.392,0
"11516_13",5.92197,20,"all",2.531,1
"11516_13",5.92197,21,"all",1.017,1
"11516_13",5.92197,22,"none",1.512,1
"11516_13",5.92197,23,"none",1.361,1
"11516_13",5.92197,24,"none",1.919,1
"11516_13",5.92197,25,"all",1.802,0
"11516_13",5.92197,26,"some",1.42,0
"11516_13",5.92197,27,"none",1.558,1
"11516_13",5.92197,28,"all",0.769,1
"11516_13",5.92197,29,"none",0.945,1
"11516_13",5.92197,30,"some",1.404,0
"11516_14",4.14784,1,"all",7.72,0
"11516_14",4.14784,2,"all",1.686,1
"11516_14",4.14784,3,"some",1.894,0
"11516_14",4.14784,4,"none",1.476,0
"11516_14",4.14784,5,"some",7.393,1
"11516_14",4.14784,6,"some",2.091,0
"11516_14",4.14784,7,"none",1.362,0
"11516_14",4.14784,8,"none",1.347,0
"11516_14",4.14784,9,"all",4.803,0
"11516_14",4.14784,10,"all",3.735,1
"11516_14",4.14784,11,"all",1.391,1
"11516_14",4.14784,12,"all",7.21,1
"11516_14",4.14784,13,"none",7.305,0
"11516_14",4.14784,14,"some",1.673,0
"11516_14",4.14784,15,"some",1.908,0
"11516_14",4.14784,16,"some",5.107,0
"11516_14",4.14784,17,"all",2.534,1
"11516_14",4.14784,18,"all",1.211,1
"11516_14",4.14784,19,"some",3.012,0
"11516_14",4.14784,20,"all",10.964,0
"11516_14",4.14784,21,"none",3.11,0
"11516_14",4.14784,22,"some",2.454,1
"11516_14",4.14784,23,"some",4.436,0
"11516_14",4.14784,24,"none",2.373,0
"11516_15",3.61944,1,"all",3.254,0
"11516_15",3.61944,2,"none",4.527,0
"11516_15",3.61944,3,"none",1.774,0
"11516_15",3.61944,4,"none",1.043,0
"11516_15",3.61944,5,"none",1.361,0
"11516_15",3.61944,6,"some",11.673,0
"11516_15",3.61944,7,"none",1.751,0
"11516_15",3.61944,8,"all",2.064,1
"11516_15",3.61944,9,"none",2.391,0
"11516_15",3.61944,10,"none",1.484,0
"11516_15",3.61944,11,"some",1.194,1
"11516_15",3.61944,12,"all",2.053,1
"11516_15",3.61944,13,"some",1.029,0
"11516_15",3.61944,14,"all",2.516,1
"11516_15",3.61944,15,"all",2.349,1
"11516_15",3.61944,16,"none",5.013,1
"11516_15",3.61944,17,"some",1.127,0
"11516_15",3.61944,18,"all",1.335,1
"11516_15",3.61944,19,"some",1.514,0
"11516_15",3.61944,20,"some",7.551,1
"11516_15",3.61944,21,"none",2.059,0
"11516_15",3.61944,22,"some",2.58,0
"11516_15",3.61944,23,"some",1.014,0
"11516_15",3.61944,24,"all",2.193,1
"11516_15",3.61944,25,"some",3.424,1
"11516_15",3.61944,26,"all",3.244,1
"11516_15",3.61944,27,"some",1.922,0
"11516_15",3.61944,28,"none",1.846,0
"11516_15",3.61944,29,"all",1.638,1
"11516_15",3.61944,30,"all",3.607,1
"11716_1",4.91718,1,"some",2.504,1
"11716_1",4.91718,2,"none",7.673,1
"11716_1",4.91718,3,"none",2.622,1
"11716_1",4.91718,4,"none",2.226,1
"11716_1",4.91718,5,"some",1.938,1
"11716_1",4.91718,6,"none",1.605,1
"11716_1",4.91718,7,"none",5.335,1
"11716_1",4.91718,8,"all",2.139,1
"11716_1",4.91718,9,"none",1.806,1
"11716_1",4.91718,10,"some",3.048,1
"11716_1",4.91718,11,"some",1.689,1
"11716_1",4.91718,12,"all",1.869,1
"11716_1",4.91718,13,"all",1.406,1
"11716_1",4.91718,14,"some",2.891,1
"11716_1",4.91718,15,"all",1.788,1
"11716_1",4.91718,16,"none",1.802,1
"11716_1",4.91718,17,"all",1.055,1
"11716_1",4.91718,18,"some",2.219,1
"11716_1",4.91718,19,"all",2.334,1
"11716_1",4.91718,20,"some",1.161,0
"11716_1",4.91718,21,"all",1.162,1
"11716_1",4.91718,22,"all",1.194,1
"11716_1",4.91718,23,"none",3.179,1
"11716_1",4.91718,24,"some",1.622,1
"11716_1",4.91718,25,"none",1.608,0
"11716_1",4.91718,26,"some",3.049,1
"11716_1",4.91718,27,"none",1.817,1
"11716_1",4.91718,28,"some",1.919,1
"11716_1",4.91718,29,"all",1.252,1
"11716_1",4.91718,30,"all",0.962,1
"11716_2",4.73922,1,"none",2.551,1
"11716_2",4.73922,2,"some",2.849,0
"11716_2",4.73922,3,"all",1.813,1
"11716_2",4.73922,4,"some",3.496,1
"11716_2",4.73922,5,"none",3.386,1
"11716_2",4.73922,6,"all",3.574,1
"11716_2",4.73922,7,"all",2.246,1
"11716_2",4.73922,8,"none",8.033,1
"11716_2",4.73922,9,"some",5.489,1
"11716_2",4.73922,10,"some",8.039,1
"11716_2",4.73922,11,"none",2.807,1
"11716_2",4.73922,12,"some",13.09,1
"11716_2",4.73922,13,"all",6.71,1
"11716_2",4.73922,14,"all",3.188,1
"11716_2",4.73922,15,"none",3.439,1
"11716_2",4.73922,16,"all",1.607,1
"11716_2",4.73922,17,"all",1.861,1
"11716_2",4.73922,18,"some",7.377,1
"11716_2",4.73922,19,"all",1.678,1
"11716_2",4.73922,20,"some",6.426,1
"11716_2",4.73922,21,"some",3.287,1
"11716_2",4.73922,22,"none",4.392,1
"11716_2",4.73922,23,"none",2.544,1
"11716_2",4.73922,24,"some",2.491,1
"11716_2",4.73922,25,"some",2.145,1
"11716_2",4.73922,26,"none",1.322,1
"11716_2",4.73922,27,"none",2.408,1
"11716_2",4.73922,28,"none",3.692,1
"11716_2",4.73922,29,"all",2.88,0
"11716_2",4.73922,30,"all",3.098,1
"11617_3",3.70431,1,"some",6.17,0
"11617_3",3.70431,2,"some",6.959,0
"11617_3",3.70431,3,"all",4.341,1
"11617_3",3.70431,4,"some",6.782,0
"11617_3",3.70431,5,"all",3.898,1
"11617_3",3.70431,6,"all",6.064,1
"11617_3",3.70431,7,"some",7.243,0
"11617_3",3.70431,8,"none",12.287,0
"11617_3",3.70431,9,"some",7.858,0
"11617_3",3.70431,10,"none",10.757,0
"11617_3",3.70431,11,"some",8.795,0
"11617_3",3.70431,12,"all",3.615,1
"11617_3",3.70431,13,"all",5.653,1
"11617_3",3.70431,14,"some",9.39,1
"11617_3",3.70431,15,"none",12.278,0
"11617_3",3.70431,16,"all",4.991,1
"11617_3",3.70431,17,"none",6.288,0
"11617_3",3.70431,18,"none",13.131,0
"11617_3",3.70431,19,"all",3.852,1
"11617_3",3.70431,20,"all",5.006,1
"11617_3",3.70431,21,"none",7.604,0
"11617_3",3.70431,22,"some",8.64,0
"11617_3",3.70431,23,"all",14.634,1
"11617_3",3.70431,24,"all",2.347,1
"11617_3",3.70431,25,"none",5.003,0
"11617_3",3.70431,26,"none",3.753,0
"11617_3",3.70431,27,"none",6.578,0
"11617_3",3.70431,28,"some",5.973,0
"11617_3",3.70431,29,"none",10.484,0
"11617_3",3.70431,30,"some",9.834,0
"11716_4",3.22793,1,"some",14.494,1
"11716_4",3.22793,2,"all",8.186,0
"11716_4",3.22793,3,"all",6.558,1
"11716_4",3.22793,4,"some",6.954,0
"11716_4",3.22793,5,"some",8.531,0
"11716_4",3.22793,6,"all",5.044,1
"11716_4",3.22793,7,"some",4.753,0
"11716_4",3.22793,8,"none",6.726,0
"11716_4",3.22793,9,"none",3.173,0
"11716_4",3.22793,10,"none",5.537,0
"11716_4",3.22793,11,"some",5.564,0
"11716_4",3.22793,12,"none",4.441,0
"11716_4",3.22793,13,"some",5.155,0
"11716_4",3.22793,14,"all",4.012,1
"11716_4",3.22793,15,"all",5.388,1
"11716_4",3.22793,16,"none",4.913,0
"11716_4",3.22793,17,"some",4.134,0
"11716_4",3.22793,18,"none",3.486,0
"11716_4",3.22793,19,"some",4.388,0
"11716_4",3.22793,20,"all",3.618,1
"11716_4",3.22793,21,"all",4.804,1
"11716_4",3.22793,22,"none",4.941,0
"11716_4",3.22793,23,"none",4.324,0
"11716_4",3.22793,24,"all",3.531,1
"11716_4",3.22793,25,"some",4.01,0
"11716_4",3.22793,26,"all",6.417,1
"11716_4",3.22793,27,"none",3.795,0
"11716_4",3.22793,28,"some",3.469,0
"11716_4",3.22793,29,"none",3.523,0
"11716_4",3.22793,30,"all",3.319,1
"11617_5",4.34771,1,"some",3.88,0
"11617_5",4.34771,2,"all",4.97,1
"11617_5",4.34771,3,"all",2.462,0
"11617_5",4.34771,4,"none",9.26,0
"11617_5",4.34771,5,"none",2.943,0
"11617_5",4.34771,6,"some",3.734,0
"11617_5",4.34771,7,"none",2.445,1
"11617_5",4.34771,8,"all",2.101,1
"11617_5",4.34771,9,"some",1.326,0
"11617_5",4.34771,10,"some",2.206,0
"11617_5",4.34771,11,"all",1.911,1
"11617_5",4.34771,12,"some",1.732,0
"11617_5",4.34771,13,"some",0.989,0
"11617_5",4.34771,14,"none",1.689,1
"11617_5",4.34771,15,"none",1.911,0
"11617_5",4.34771,16,"all",0.82,1
"11617_5",4.34771,17,"some",2.193,0
"11617_5",4.34771,18,"some",2.317,0
"11617_5",4.34771,19,"none",1.581,0
"11617_5",4.34771,20,"all",1.547,0
"11617_5",4.34771,21,"some",1.583,0
"11617_5",4.34771,22,"all",1.847,1
"11617_5",4.34771,23,"all",2.278,1
"11617_5",4.34771,24,"none",2.166,0
"11617_5",4.34771,25,"some",1.332,0
"11617_5",4.34771,26,"all",1.452,1
"11617_5",4.34771,27,"none",2.364,0
"11617_5",4.34771,28,"all",2.101,0
"11617_5",4.34771,29,"none",1.961,0
"11617_5",4.34771,30,"none",3.973,0
"11617_6",5.62628,1,"all",2.942,1
"11617_6",5.62628,2,"all",2.092,1
"11617_6",5.62628,3,"all",1.342,1
"11617_6",5.62628,4,"all",1.475,1
"11617_6",5.62628,5,"some",9.07,0
"11617_6",5.62628,6,"none",3.611,1
"11617_6",5.62628,7,"all",4.179,1
"11617_6",5.62628,8,"all",2.985,1
"11617_6",5.62628,9,"some",1.253,0
"11617_6",5.62628,10,"all",1.771,1
"11617_6",5.62628,11,"none",13.144,1
"11617_6",5.62628,12,"some",6.629,0
"11617_6",5.62628,13,"some",4.007,0
"11617_6",5.62628,14,"some",1.435,0
"11617_6",5.62628,15,"none",2.235,1
"11617_6",5.62628,16,"none",4.287,1
"11617_6",5.62628,17,"some",3.341,0
"11617_6",5.62628,18,"none",3.475,1
"11617_6",5.62628,19,"all",6.013,1
"11617_6",5.62628,20,"some",1.153,0
"11617_6",5.62628,21,"none",8.07,1
"11617_6",5.62628,22,"all",1.257,1
"11617_6",5.62628,23,"none",1.603,1
"11617_6",5.62628,24,"some",0.972,0
"11617_6",5.62628,25,"some",0.971,0
"11617_6",5.62628,26,"none",3.374,1
"11617_6",5.62628,27,"all",1.103,1
"11617_6",5.62628,28,"some",1.39,0
"11617_6",5.62628,29,"none",3.397,1
"11617_6",5.62628,30,"none",6.265,1
"11716_7",5.62628,1,"all",1.913,1
"11716_7",5.62628,2,"none",2.957,1
"11716_7",5.62628,3,"all",1.765,1
"11716_7",5.62628,4,"all",1.125,1
"11716_7",5.62628,5,"all",2.283,1
"11716_7",5.62628,6,"all",3.037,1
"11716_7",5.62628,7,"some",2.551,1
"11716_7",5.62628,8,"some",2.37,1
"11716_7",5.62628,9,"all",0.835,1
"11716_7",5.62628,10,"none",1.121,1
"11716_7",5.62628,11,"some",3.493,1
"11716_7",5.62628,12,"some",0.446,1
"11716_7",5.62628,13,"some",2.2,1
"11716_7",5.62628,14,"none",5.907,1
"11716_7",5.62628,15,"all",1.482,1
"11716_7",5.62628,16,"none",1.559,1
"11716_7",5.62628,17,"none",3.885,1
"11716_7",5.62628,18,"all",4.899,1
"11716_7",5.62628,19,"none",2.082,1
"11716_7",5.62628,20,"none",3.678,1
"11716_7",5.62628,21,"some",1.511,1
"11716_7",5.62628,22,"some",1.19,1
"11716_7",5.62628,23,"none",1.905,1
"11716_7",5.62628,24,"all",1.085,1
"11716_7",5.62628,25,"all",1.091,0
"11716_7",5.62628,26,"none",3.878,0
"11716_7",5.62628,27,"none",2.962,1
"11716_7",5.62628,28,"some",2.662,1
"11716_7",5.62628,29,"some",3.638,1
"11716_7",5.62628,30,"all",2.512,1
"11716_8",3.98905,1,"none",13.584,0
"11716_8",3.98905,3,"all",1.724,0
"11716_8",3.98905,4,"all",1.451,0
"11716_8",3.98905,5,"none",2.006,0
"11716_8",3.98905,6,"some",4.055,0
"11716_8",3.98905,7,"some",2.607,0
"11716_8",3.98905,8,"some",4.071,1
"11716_8",3.98905,9,"none",4.262,0
"11716_8",3.98905,10,"some",1.641,0
"11716_8",3.98905,11,"all",1.559,1
"11716_8",3.98905,12,"all",2.42,1
"11716_8",3.98905,13,"all",2.69,1
"11716_8",3.98905,14,"some",2.105,0
"11716_8",3.98905,15,"some",1.992,0
"11716_8",3.98905,16,"none",2.411,0
"11716_8",3.98905,17,"some",3.123,0
"11716_8",3.98905,18,"none",2.622,0
"11716_8",3.98905,19,"all",4.399,0
"11716_8",3.98905,20,"some",1.045,0
"11716_8",3.98905,21,"all",1.561,0
"11716_8",3.98905,23,"none",0.686,0
"11716_8",3.98905,24,"some",2.367,0
"11716_8",3.98905,25,"none",4.41,0
"11716_8",3.98905,26,"all",3.448,0
"11716_8",3.98905,27,"some",2.254,1
"11716_8",3.98905,28,"all",3.725,0
"11716_8",3.98905,29,"all",3.095,0
"11716_8",3.98905,30,"none",4.53,1
"11716_9",4.02738,1,"all",3.063,1
"11716_9",4.02738,2,"none",6.704,0
"11716_9",4.02738,3,"some",3.574,1
"11716_9",4.02738,4,"none",2.305,0
"11716_9",4.02738,5,"some",2.822,1
"11716_9",4.02738,6,"some",2.603,0
"11716_9",4.02738,7,"some",2.259,1
"11716_9",4.02738,8,"some",2.236,0
"11716_9",4.02738,9,"all",3.513,0
"11716_9",4.02738,10,"all",4.163,0
"11716_9",4.02738,11,"all",3.644,1
"11716_9",4.02738,12,"none",8.729,0
"11716_9",4.02738,13,"none",1.784,0
"11716_9",4.02738,14,"none",1.671,0
"11716_9",4.02738,15,"all",1.34,1
"11716_9",4.02738,16,"none",1.473,0
"11716_9",4.02738,17,"all",2.024,0
"11716_9",4.02738,18,"some",2.384,1
"11716_9",4.02738,19,"all",1.633,0
"11716_9",4.02738,20,"some",2.838,0
"11716_9",4.02738,21,"none",4.063,0
"11716_9",4.02738,22,"all",2.216,0
"11716_9",4.02738,23,"none",3.695,0
"11716_9",4.02738,24,"some",2.058,0
"11716_9",4.02738,25,"none",2.288,0
"11716_9",4.02738,26,"all",2.044,1
"11716_9",4.02738,27,"some",2.909,0
"11716_9",4.02738,28,"some",3.194,1
"11716_9",4.02738,29,"none",1.891,0
"11716_9",4.02738,30,"all",2.233,0
"11716_10",3.92882,1,"none",1.195,0
"11716_10",3.92882,5,"none",3.453,0
"11716_10",3.92882,6,"some",1.47,0
"11716_10",3.92882,7,"all",2.13,1
"11716_10",3.92882,8,"some",2.914,1
"11716_10",3.92882,9,"none",3.815,0
"11716_10",3.92882,10,"some",4.541,0
"11716_10",3.92882,11,"some",2.786,0
"11716_10",3.92882,12,"none",1.642,1
"11716_10",3.92882,13,"none",2.421,0
"11716_10",3.92882,14,"none",4.448,1
"11716_10",3.92882,15,"none",3.399,0
"11716_10",3.92882,16,"all",3.108,0
"11716_10",3.92882,17,"none",1.797,0
"11716_10",3.92882,18,"some",0.494,1
"11716_10",3.92882,19,"all",3.037,0
"11716_10",3.92882,20,"some",3.785,0
"11716_10",3.92882,21,"none",6.517,0
"11716_10",3.92882,22,"all",5.391,1
"11716_10",3.92882,23,"some",5.301,0
"11716_10",3.92882,24,"all",5.036,1
"11716_10",3.92882,25,"all",3.87,0
"11716_10",3.92882,26,"all",2.194,1
"11716_10",3.92882,27,"some",5.798,0
"11716_10",3.92882,28,"all",5.48,1
"11716_10",3.92882,29,"some",6.391,1
"11716_10",3.92882,30,"none",4.35,0
"11716_11",3.91513,1,"all",8.476,1
"11716_11",3.91513,2,"all",2.54,1
"11716_11",3.91513,3,"all",1.983,1
"11716_11",3.91513,4,"some",2.723,0
"11716_11",3.91513,5,"some",2.274,0
"11716_11",3.91513,6,"none",6.462,0
"11716_11",3.91513,7,"all",1.679,1
"11716_11",3.91513,8,"all",1.7,1
"11716_11",3.91513,9,"none",6.457,0
"11716_11",3.91513,10,"all",1.661,1
"11716_11",3.91513,11,"some",1.284,0
"11716_11",3.91513,12,"some",1.554,0
"11716_11",3.91513,13,"some",7.92,0
"11716_11",3.91513,14,"all",6.337,1
"11716_11",3.91513,15,"none",2.207,0
"11716_11",3.91513,16,"none",1.908,0
"11716_11",3.91513,17,"all",2.319,1
"11716_11",3.91513,18,"some",5.844,0
"11716_11",3.91513,19,"none",4.229,0
"11716_11",3.91513,20,"none",3.267,0
"11716_11",3.91513,21,"none",2.849,0
"11716_11",3.91513,22,"all",2.99,1
"11716_11",3.91513,23,"none",1.697,0
"11716_11",3.91513,24,"some",3.732,0
"11716_11",3.91513,25,"none",2.104,0
"11716_11",3.91513,26,"all",1.179,1
"11716_11",3.91513,27,"none",1.618,0
"11716_11",3.91513,28,"some",1.747,0
"11716_11",3.91513,29,"some",2.098,0
"11716_11",3.91513,30,"some",1.784,0
"11716_12",6.44764,1,"all",2.072,1
"11716_12",6.44764,2,"some",1.17,1
"11716_12",6.44764,3,"some",1.669,1
"11716_12",6.44764,4,"some",3.527,1
"11716_12",6.44764,5,"none",6.88,1
"11716_12",6.44764,6,"some",1.595,1
"11716_12",6.44764,7,"some",1.166,1
"11716_12",6.44764,8,"none",2.657,1
"11716_12",6.44764,9,"all",2.177,1
"11716_12",6.44764,10,"none",2.046,1
"11716_12",6.44764,11,"all",1.056,1
"11716_12",6.44764,12,"some",2.145,1
"11716_12",6.44764,13,"none",1.571,1
"11716_12",6.44764,14,"all",1.491,1
"11716_12",6.44764,15,"all",1.587,1
"11716_12",6.44764,16,"some",3.522,1
"11716_12",6.44764,17,"none",1.817,1
"11716_12",6.44764,18,"none",1.632,1
"11716_12",6.44764,19,"all",2.944,1
"11716_12",6.44764,20,"some",2.223,1
"11716_12",6.44764,21,"none",1.784,1
"11716_12",6.44764,22,"all",1.485,1
"11716_12",6.44764,23,"none",2.766,1
"11716_12",6.44764,24,"all",3.07,1
"11716_12",6.44764,25,"none",2.199,1
"11716_12",6.44764,26,"some",2.151,1
"11716_12",6.44764,27,"some",2.343,1
"11716_12",6.44764,28,"all",3.129,1
"11716_12",6.44764,29,"none",2.153,1
"11716_12",6.44764,30,"all",2.17,1
"11716_13",5.0486,1,"some",6.147,0
"11716_13",5.0486,2,"some",3.5,0
"11716_13",5.0486,3,"none",6.652,0
"11716_13",5.0486,4,"some",1.249,0
"11716_13",5.0486,5,"none",3.848,0
"11716_13",5.0486,6,"all",4.779,1
"11716_13",5.0486,7,"some",1.633,0
"11716_13",5.0486,8,"some",1.352,0
"11716_13",5.0486,9,"all",1.294,1
"11716_13",5.0486,10,"all",1.512,1
"11716_13",5.0486,11,"all",1.408,1
"11716_13",5.0486,12,"all",2.031,1
"11716_13",5.0486,13,"all",1.582,1
"11716_13",5.0486,14,"some",1.38,0
"11716_13",5.0486,15,"none",2.407,0
"11716_13",5.0486,16,"all",2.146,1
"11716_13",5.0486,17,"none",1.456,0
"11716_13",5.0486,18,"none",1.175,0
"11716_13",5.0486,19,"none",1.245,0
"11716_13",5.0486,20,"some",1.13,0
"11716_13",5.0486,21,"none",1.607,1
"11716_13",5.0486,22,"some",1.742,0
"11716_13",5.0486,23,"some",1.592,0
"11716_13",5.0486,24,"all",1.498,1
"11716_13",5.0486,25,"none",1.548,0
"11716_13",5.0486,26,"none",1.443,0
"11716_13",5.0486,27,"all",1.631,1
"11716_13",5.0486,28,"none",1.705,0
"11716_13",5.0486,29,"some",1.338,0
"11716_13",5.0486,30,"all",1.476,1
"11716_14",4.72279,1,"none",11.964,0
"11716_14",4.72279,2,"none",10.183,0
"11716_14",4.72279,4,"all",6.882,1
"11716_14",4.72279,5,"none",5.195,0
"11716_14",4.72279,6,"all",6.37,1
"11716_14",4.72279,7,"all",4.168,1
"11716_14",4.72279,8,"some",6.721,1
"11716_14",4.72279,9,"none",5.014,0
"11716_14",4.72279,10,"some",8.438,0
"11716_14",4.72279,11,"all",7.99,1
"11716_14",4.72279,12,"none",6.414,0
"11716_14",4.72279,13,"some",6.173,0
"11716_14",4.72279,14,"all",3.093,1
"11716_14",4.72279,15,"some",5.951,1
"11716_14",4.72279,16,"some",4.634,1
"11716_14",4.72279,17,"none",4.043,0
"11716_14",4.72279,18,"some",4.426,1
"11716_14",4.72279,19,"none",2.494,0
"11716_14",4.72279,20,"none",3.451,0
"11716_14",4.72279,21,"none",9.616,0
"11716_14",4.72279,22,"all",3.372,1
"11716_14",4.72279,23,"all",1.676,1
"11716_14",4.72279,24,"some",2.445,1
"11716_14",4.72279,25,"all",6.725,1
"11716_14",4.72279,26,"none",3.926,0
"11716_14",4.72279,27,"all",1.703,1
"11716_14",4.72279,28,"all",2.102,1
"11716_14",4.72279,29,"some",3.252,1
"11716_14",4.72279,30,"some",1.56,1
"11716_15",3.18138,1,"all",5.383,1
"11716_15",3.18138,2,"some",4.893,0
"11716_15",3.18138,3,"some",5.617,1
"11716_15",3.18138,4,"none",7.997,0
"11716_15",3.18138,5,"all",6.257,0
"11716_15",3.18138,6,"some",5.279,1
"11716_15",3.18138,7,"all",6.385,1
"11716_15",3.18138,8,"all",5.401,1
"11716_15",3.18138,9,"some",5.705,0
"11716_15",3.18138,10,"some",6.027,0
"11716_15",3.18138,11,"none",5.977,0
"11716_15",3.18138,12,"none",5.585,0
"11716_15",3.18138,13,"all",5.946,1
"11716_15",3.18138,14,"some",9.126,1
"11716_15",3.18138,15,"none",6.391,0
"11716_15",3.18138,16,"all",5.192,1
"11716_15",3.18138,17,"some",3.216,1
"11716_15",3.18138,18,"some",5.783,0
"11716_15",3.18138,19,"none",7.149,1
"11716_15",3.18138,20,"all",5.632,1
"11716_15",3.18138,21,"all",5.438,1
"11716_15",3.18138,22,"some",6.022,0
"11716_15",3.18138,23,"all",5.868,1
"11716_15",3.18138,24,"none",5.525,0
"11716_15",3.18138,25,"none",6.463,0
"11716_15",3.18138,26,"none",9.189,0
"11716_15",3.18138,27,"some",5.571,0
"11716_15",3.18138,28,"all",5.006,1
"11716_15",3.18138,29,"none",3.504,0
"11716_15",3.18138,30,"none",2.208,0
"11716_16",3.7974,1,"all",1.279,1
"11716_16",3.7974,2,"all",2.883,1
"11716_16",3.7974,3,"none",4.751,1
"11716_16",3.7974,4,"some",1.863,0
"11716_16",3.7974,5,"some",1.263,0
"11716_16",3.7974,6,"some",10.524,0
"11716_16",3.7974,7,"all",2.257,1
"11716_16",3.7974,8,"none",1.181,0
"11716_16",3.7974,9,"all",2.248,1
"11716_16",3.7974,10,"some",11.377,0
"11716_16",3.7974,11,"some",5.225,0
"11716_16",3.7974,12,"none",1.332,0
"11716_16",3.7974,13,"none",7.069,1
"11716_16",3.7974,14,"all",3.903,1
"11716_16",3.7974,15,"some",7.889,1
"11716_16",3.7974,16,"all",6.592,0
"11716_16",3.7974,17,"none",3.278,0
"11716_16",3.7974,18,"none",6.764,0
"11716_16",3.7974,19,"some",4.039,1
"11716_16",3.7974,20,"all",9.136,1
"11716_16",3.7974,21,"none",0.767,0
"11716_16",3.7974,22,"some",5.004,1
"11716_16",3.7974,23,"none",2.184,0
"11716_16",3.7974,24,"all",9.151,0
"11716_16",3.7974,25,"some",2.796,0
"11716_16",3.7974,26,"none",4.904,1
"11716_16",3.7974,27,"some",5.301,1
"11716_16",3.7974,28,"all",4.318,1
"11716_16",3.7974,29,"none",7.815,0
"11716_16",3.7974,30,"all",3.124,0
"11716_17",3.64134,1,"some",4.728,0
"11716_17",3.64134,2,"all",2.946,1
"11716_17",3.64134,3,"none",4.824,0
"11716_17",3.64134,4,"all",1.801,1
"11716_17",3.64134,5,"all",2.09,1
"11716_17",3.64134,6,"none",3.284,0
"11716_17",3.64134,7,"some",5.77,1
"11716_17",3.64134,8,"all",4.08,1
"11716_17",3.64134,9,"some",4.582,1
"11716_17",3.64134,10,"none",3.075,0
"11716_17",3.64134,11,"none",3.248,1
"11716_17",3.64134,12,"some",2.961,0
"11716_17",3.64134,13,"some",3.3,1
"11716_17",3.64134,14,"some",3.401,1
"11716_17",3.64134,15,"none",2.768,0
"11716_17",3.64134,16,"some",3.885,1
"11716_17",3.64134,17,"none",2.565,0
"11716_17",3.64134,18,"none",3.536,0
"11716_17",3.64134,19,"none",2.696,0
"11716_17",3.64134,20,"all",2.641,1
"11716_17",3.64134,21,"some",4.533,1
"11716_17",3.64134,22,"some",9.679,1
"11716_17",3.64134,23,"all",3.717,1
"11716_17",3.64134,24,"all",2.003,1
"11716_17",3.64134,25,"none",3.099,0
"11716_17",3.64134,26,"none",2.376,0
"11716_17",3.64134,27,"some",2.488,1
"11716_17",3.64134,28,"all",3.894,1
"11716_17",3.64134,29,"all",3.143,1
"11716_17",3.64134,30,"all",1.849,1
"TM001",3.32649,1,"all",2.098,0
"TM001",3.32649,2,"some",1.5,0
"TM001",3.32649,3,"some",2.703,0
"TM001",3.32649,4,"none",8.955,1
"TM001",3.32649,5,"none",5.316,0
"TM001",3.32649,6,"none",3.177,0
"TM001",3.32649,7,"none",2.677,0
"TM002",4.23272,1,"all",2.723,1
"TM002",4.23272,2,"some",8.875,1
"TM002",4.23272,3,"some",1.842,1
"TM002",4.23272,4,"none",3.834,1
"TM002",4.23272,5,"none",3.626,1
"TM002",4.23272,6,"none",1.689,1
"TM002",4.23272,7,"some",3.476,1
"TM002",4.23272,8,"some",2.996,1
"TM002",4.23272,9,"all",1.491,1
"TM002",4.23272,10,"some",2.061,1
"TM002",4.23272,11,"none",1.855,1
"TM002",4.23272,12,"all",4.926,1
"TM002",4.23272,13,"all",3.519,0
"TM002",4.23272,14,"some",2.699,1
"TM002",4.23272,15,"some",3.572,1
"TM002",4.23272,16,"none",2.979,1
"TM002",4.23272,17,"all",2.668,1
"TM002",4.23272,18,"some",7.005,0
"TM002",4.23272,19,"all",1.909,1
"TM002",4.23272,20,"all",2.929,1
"TM002",4.23272,21,"all",2.278,1
"TM002",4.23272,22,"none",2.778,1
"TM002",4.23272,23,"all",2.315,1
"TM003",3.59754,2,"none",4.176,0
"TM003",3.59754,3,"none",5.912,0
"TM003",3.59754,7,"all",11.621,1
"TM003",3.59754,9,"none",12.472,1
"TM003",3.59754,10,"all",5.342,0
"TM003",3.59754,11,"some",13.778,1
"TM003",3.59754,12,"some",7.868,0
"TM003",3.59754,15,"some",8.629,0
"TM004",3.55373,1,"some",1.14,1
"TM004",3.55373,2,"all",0.928,1
"TM004",3.55373,3,"none",1.369,0
"TM004",3.55373,4,"all",1.695,1
"TM004",3.55373,5,"some",1.078,0
"TM005",4.8104,1,"all",1.5,1
"TM005",4.8104,2,"none",2.708,1
"TM005",4.8104,3,"none",2.968,1
"TM005",4.8104,4,"all",1.128,1
"TM005",4.8104,5,"none",1.794,1
"TM005",4.8104,6,"none",3.64,1
"TM005",4.8104,7,"some",1.551,1
"TM005",4.8104,8,"some",0.787,1
"TM005",4.8104,9,"none",1.857,1
"TM005",4.8104,10,"all",1.285,0
"TM005",4.8104,11,"some",1.498,0
"TM005",4.8104,12,"some",1.747,1
"TM005",4.8104,13,"all",1.462,1
"TM005",4.8104,14,"some",1.002,1
"TM005",4.8104,15,"all",1.33,1
"TM005",4.8104,16,"some",0.962,1
"TM005",4.8104,17,"none",3.332,1
"TM005",4.8104,18,"none",2.714,1
"TM005",4.8104,19,"all",1.025,1
"TM005",4.8104,20,"all",0.988,1
"TM005",4.8104,21,"all",0.989,1
"TM005",4.8104,22,"all",2.399,1
"TM005",4.8104,23,"none",2.592,1
"TM005",4.8104,24,"some",1.596,1
"TM005",4.8104,25,"some",0.886,1
"TM005",4.8104,26,"none",2.424,1
"TM005",4.8104,27,"all",1.653,1
"TM005",4.8104,28,"some",1.521,1
"TM005",4.8104,29,"some",1.1,1
"TM005",4.8104,30,"none",1.878,1
"TM006",4.56947,1,"all",6.382,0
"TM006",4.56947,2,"some",5.358,0
"TM006",4.56947,3,"all",4.508,1
"TM006",4.56947,4,"none",4.061,0
"TM006",4.56947,5,"all",3.063,0
"TM006",4.56947,6,"none",3.513,0
"TM006",4.56947,7,"all",0.768,0
"TM006",4.56947,8,"none",3.542,0
"TM006",4.56947,9,"some",4.602,1
"TM006",4.56947,10,"none",2.224,1
"TM006",4.56947,11,"all",1.771,0
"TM006",4.56947,12,"some",3.03,0
"TM006",4.56947,13,"none",5.065,0
"TM006",4.56947,14,"all",2.278,0
"TM006",4.56947,15,"all",2.222,0
"TM006",4.56947,16,"none",3.036,0
"TM006",4.56947,17,"some",3.27,0
"TM006",4.56947,18,"all",1.6,0
"TM006",4.56947,19,"none",3.026,0
"TM006",4.56947,20,"some",3.984,1
"TM006",4.56947,21,"some",2.608,0
"TM006",4.56947,22,"all",2.079,0
"TM006",4.56947,23,"all",3.795,0
"TM006",4.56947,24,"none",3.303,0
"TM006",4.56947,25,"some",1.708,0
"TM006",4.56947,26,"some",3.421,0
"TM006",4.56947,27,"some",2.907,0
"TM006",4.56947,28,"none",3.713,0
"TM006",4.56947,29,"some",3.75,1
"TM006",4.56947,30,"none",3.108,0
"TM007",3.84394,1,"some",2.095,0
"TM007",3.84394,2,"some",1.54,0
"TM007",3.84394,3,"none",2.581,1
"TM007",3.84394,4,"all",1.705,0
"TM007",3.84394,5,"none",2.014,1
"TM007",3.84394,6,"all",2.771,1
"TM007",3.84394,7,"all",1.645,1
"TM007",3.84394,8,"none",0.963,1
"TM007",3.84394,9,"none",2.108,1
"TM007",3.84394,10,"some",2.183,0
"TM007",3.84394,11,"all",1.323,1
"TM007",3.84394,12,"all",0.843,1
"TM007",3.84394,13,"some",1.676,0
"TM007",3.84394,14,"all",1.475,1
"TM007",3.84394,15,"some",1.612,0
"TM007",3.84394,18,"none",1.564,0
"TM007",3.84394,19,"all",2.795,0
"TM007",3.84394,20,"none",0.884,1
"TM007",3.84394,21,"some",0.606,0
"TM007",3.84394,22,"some",1.151,0
"TM007",3.84394,23,"some",0.634,0
"TM007",3.84394,24,"all",4.135,1
"TM007",3.84394,25,"none",1.295,1
"TM007",3.84394,26,"some",2.04,0
"TM007",3.84394,27,"none",1.802,0
"TM007",3.84394,28,"some",0.653,0
"TM007",3.84394,29,"all",6.296,0
"TM007",3.84394,30,"all",1.333,1
"12016_2",5.10335,1,"some",6.133,0
"12016_2",5.10335,2,"some",2.441,1
"12016_2",5.10335,3,"none",4.366,0
"12016_2",5.10335,4,"none",2.688,0
"12016_2",5.10335,5,"some",2.362,1
"12016_2",5.10335,6,"some",2.678,0
"12016_2",5.10335,7,"all",3.886,1
"12016_2",5.10335,8,"all",2.692,1
"12016_2",5.10335,9,"all",9.63,1
"12016_2",5.10335,10,"some",5.458,1
"12016_2",5.10335,11,"none",2.77,0
"12016_2",5.10335,12,"all",2.016,1
"12016_2",5.10335,13,"none",3.177,0
"12016_2",5.10335,14,"all",3.673,1
"12016_2",5.10335,15,"none",2.429,0
"12016_2",5.10335,16,"some",4.644,0
"12016_2",5.10335,17,"some",4.453,1
"12016_2",5.10335,18,"all",5.226,1
"12016_2",5.10335,19,"none",1.511,0
"12016_2",5.10335,20,"none",1.745,0
"12016_2",5.10335,21,"all",3.201,1
"12016_2",5.10335,22,"some",9.143,1
"12016_2",5.10335,23,"none",3.07,0
"12016_2",5.10335,24,"some",4.182,0
"12016_2",5.10335,25,"all",2.157,0
"12016_2",5.10335,26,"all",3.705,1
"12016_2",5.10335,27,"none",5.851,0
"12016_2",5.10335,28,"some",2.961,1
"12016_2",5.10335,29,"all",5.74,1
"12016_2",5.10335,30,"none",2.971,0
"12016_3",3.93155,1,"none",8.894,1
"12016_3",3.93155,2,"some",2.087,0
"12016_3",3.93155,3,"some",1.277,1
"12016_3",3.93155,4,"all",1.809,1
"12016_3",3.93155,5,"some",3.62,1
"12016_3",3.93155,6,"all",2.216,1
"12016_3",3.93155,7,"all",2.317,1
"12016_3",3.93155,8,"some",2.822,1
"12016_3",3.93155,9,"some",1.527,1
"12016_3",3.93155,10,"none",3.48,1
"12016_3",3.93155,11,"all",3.558,1
"12016_3",3.93155,12,"none",3.387,1
"12016_3",3.93155,13,"none",4.518,1
"12016_3",3.93155,14,"none",3.52,1
"12016_3",3.93155,15,"some",2.162,1
"12016_3",3.93155,16,"all",1.497,1
"12016_3",3.93155,17,"some",2.843,1
"12016_3",3.93155,18,"none",1.936,0
"12016_3",3.93155,19,"all",1.547,1
"12016_3",3.93155,20,"all",1.634,1
"12016_3",3.93155,21,"all",4.67,1
"12016_3",3.93155,22,"none",5.686,1
"12016_3",3.93155,23,"none",9.537,1
"12016_3",3.93155,24,"some",4.252,1
"12016_3",3.93155,25,"none",4.266,1
"12016_3",3.93155,26,"all",1.211,1
"12016_3",3.93155,27,"some",3.201,0
"12016_3",3.93155,28,"none",2.63,1
"12016_3",3.93155,29,"some",2.011,1
"12016_3",3.93155,30,"all",1.63,1
"12016_4",3.26899,1,"all",13.499,1
"12016_4",3.26899,2,"some",4.116,0
"12016_4",3.26899,3,"some",4.889,0
