"subj_idx","trial_num","stim","rt","response","age"
"121615_1",1,"None",5499,0,4.23
"121615_1",2,"Some",5292,0,4.23
"121615_1",3,"All",2458,1,4.23
"121615_1",4,"None",3574,0,4.23
"121615_1",5,"All",351,1,4.23
"121615_1",6,"None",1228,0,4.23
"121615_1",7,"Some",1718,0,4.23
"121615_1",8,"None",2259,0,4.23
"121615_1",9,"All",1444,1,4.23
"121615_1",10,"Some",1703,0,4.23
"121615_1",11,"All",3097,1,4.23
"121615_1",12,"None",4233,0,4.23
"121615_1",13,"All",2415,1,4.23
"121615_1",14,"None",1328,0,4.23
"121615_1",15,"All",1266,1,4.23
"121615_1",16,"All",2205,1,4.23
"121615_1",17,"Some",1130,0,4.23
"121615_1",18,"None",10837,1,4.23
"121615_1",19,"None",1240,0,4.23
"121615_1",20,"All",2542,1,4.23
"121615_1",21,"Some",7277,0,4.23
"121615_1",22,"None",3542,0,4.23
"121615_1",23,"All",7676,0,4.23
"121715_1",1,"None",8999,0,3.12
"121715_1",2,"All",4118,1,3.12
"121715_1",3,"None",1628,0,3.12
"121715_1",4,"Some",5431,0,3.12
"121715_1",6,"Some",10819,1,3.12
"121715_1",7,"All",7854,0,3.12
"121715_1",8,"Some",6217,0,3.12
"121715_1",9,"None",4498,0,3.12
"121715_1",10,"All",6399,1,3.12
"121715_1",11,"Some",3908,0,3.12
"121715_1",12,"None",12751,0,3.12
"121715_1",13,"Some",11016,0,3.12
"121715_1",14,"All",3495,1,3.12
"121715_1",15,"Some",2845,0,3.12
"121715_1",16,"Some",2568,0,3.12
"121715_1",17,"All",6779,1,3.12
"121715_1",18,"None",7511,0,3.12
"121715_1",19,"None",7648,0,3.12
"121715_1",20,"None",9250,0,3.12
"121715_1",21,"All",5637,1,3.12
"121715_1",22,"Some",3797,0,3.12
"121715_1",23,"Some",3399,0,3.12
"121715_1",24,"All",2574,1,3.12
"121715_1",25,"None",3335,0,3.12
"121715_1",26,"All",3028,1,3.12
"121715_1",27,"Some",1528,0,3.12
"121715_1",28,"None",3935,0,3.12
"121715_1",29,"All",3904,1,3.12
"121715_1",30,"None",2844,0,3.12
"121815_1",1,"Some",3753,0,4.59
"121815_1",2,"Some",2759,0,4.59
"121815_1",3,"Some",2469,0,4.59
"121815_1",4,"All",4398,1,4.59
"121815_1",5,"All",2447,1,4.59
"121815_1",6,"None",2890,0,4.59
"121815_1",7,"Some",2183,0,4.59
"121815_1",8,"Some",4078,0,4.59
"121815_1",9,"None",2412,0,4.59
"121815_1",10,"None",6300,0,4.59
"121815_1",11,"None",4796,0,4.59
"121815_1",12,"Some",4491,1,4.59
"121815_1",13,"None",3853,0,4.59
"121815_1",14,"None",3983,0,4.59
"121815_1",15,"None",4502,0,4.59
"121815_1",16,"Some",3814,0,4.59
"121815_1",17,"All",5648,1,4.59
"121815_1",18,"Some",2986,0,4.59
"121815_1",19,"All",3726,0,4.59
"121815_1",20,"All",2332,1,4.59
"121815_1",21,"None",4199,1,4.59
"121815_1",22,"All",4669,0,4.59
"121815_1",23,"None",6218,0,4.59
"121815_1",24,"All",2382,1,4.59
"121815_1",25,"All",4673,0,4.59
"121815_1",26,"Some",2868,1,4.59
"121815_1",27,"All",3349,0,4.59
"121815_1",28,"Some",2270,0,4.59
"121815_1",29,"None",3481,0,4.59
"121815_1",30,"All",4623,0,4.59
"121815_3",1,"All",3411,1,4.38
"121815_3",2,"None",1477,0,4.38
"121815_3",3,"None",4166,1,4.38
"121815_3",4,"Some",2891,1,4.38
"121815_3",5,"None",3533,1,4.38
"121815_3",6,"None",3399,1,4.38
"121815_3",7,"All",2074,1,4.38
"121815_3",8,"None",4863,1,4.38
"121815_3",9,"Some",6286,1,4.38
"121815_3",10,"Some",2118,1,4.38
"121815_3",11,"Some",1437,1,4.38
"121815_3",12,"None",6913,1,4.38
"121815_3",13,"All",1859,1,4.38
"121815_3",14,"Some",1896,1,4.38
"121815_3",15,"Some",2273,1,4.38
"121815_3",16,"All",1640,1,4.38
"121815_3",17,"All",3412,1,4.38
"121815_3",18,"All",1541,1,4.38
"121815_3",19,"None",2812,1,4.38
"121815_3",20,"Some",6532,1,4.38
"121815_3",21,"Some",5107,1,4.38
"121815_3",22,"All",4827,1,4.38
"121815_3",23,"All",904,1,4.38
"121815_3",24,"Some",14635,1,4.38
"121815_3",25,"None",2235,0,4.38
"121815_3",26,"Some",1205,1,4.38
"121815_3",27,"None",1518,1,4.38
"121815_3",28,"None",6291,1,4.38
"121815_3",29,"All",3045,1,4.38
"121815_3",30,"All",1901,1,4.38
"121815_4",1,"None",6175,0,4.98
"121815_4",2,"All",3175,1,4.98
"121815_4",3,"Some",4822,0,4.98
"121815_4",4,"All",3935,1,4.98
"121815_4",5,"All",1221,1,4.98
"121815_4",6,"None",4682,0,4.98
"121815_4",7,"All",5538,1,4.98
"121815_4",8,"Some",3713,1,4.98
"121815_4",9,"All",1119,1,4.98
"121815_4",10,"All",1750,1,4.98
"121815_4",11,"None",1585,0,4.98
"121815_4",12,"Some",1863,1,4.98
"121815_4",13,"Some",2661,1,4.98
"121815_4",14,"All",1299,1,4.98
"121815_4",15,"All",1274,1,4.98
"121815_4",16,"All",1659,1,4.98
"121815_4",17,"None",2143,0,4.98
"121815_4",18,"Some",1842,1,4.98
"121815_4",19,"Some",1316,1,4.98
"121815_4",20,"None",1860,0,4.98
"121815_4",21,"Some",2077,0,4.98
"121815_4",22,"None",1555,0,4.98
"121815_4",23,"Some",1765,0,4.98
"121815_4",24,"Some",1774,0,4.98
"121815_4",25,"None",1160,0,4.98
"121815_4",26,"None",1235,0,4.98
"121815_4",27,"None",3117,0,4.98
"121815_4",28,"All",1051,1,4.98
"121815_4",29,"Some",1327,1,4.98
"121815_4",30,"None",1257,0,4.98
"1616_1",1,"Some",9608,0,4
"1616_1",3,"Some",9003,0,4
"1616_1",6,"All",8872,1,4
"1616_1",7,"Some",12797,0,4
"1616_1",8,"Some",6729,0,4
"1616_1",9,"Some",6449,0,4
"1616_1",10,"Some",8389,0,4
"1616_1",12,"All",3968,1,4
"1616_1",13,"All",4485,1,4
"1616_1",14,"All",11988,1,4
"1616_1",16,"None",7890,0,4
"1616_1",18,"None",13996,1,4
"1616_1",19,"Some",5863,0,4
"1616_1",20,"None",11804,1,4
"1616_1",21,"None",5876,1,4
"1616_1",22,"None",10568,1,4
"1616_1",23,"None",7255,0,4
"1616_1",24,"All",4622,1,4
"1616_1",25,"All",7112,1,4
"1616_1",26,"Some",1793,0,4
"1616_1",27,"All",5162,1,4
"1616_1",28,"All",11344,1,4
"1616_1",29,"All",5227,1,4
"1616_1",30,"Some",13965,0,4
"1616_2",1,"None",8056,1,5.94
"1616_2",2,"All",5315,1,5.94
"1616_2",3,"None",2788,1,5.94
"1616_2",4,"None",3044,1,5.94
"1616_2",5,"Some",2267,1,5.94
"1616_2",6,"Some",1183,1,5.94
"1616_2",7,"All",1066,1,5.94
"1616_2",8,"All",1141,1,5.94
"1616_2",10,"None",2674,1,5.94
"1616_2",11,"Some",1982,1,5.94
"1616_2",12,"None",3601,1,5.94
"1616_2",13,"All",1918,1,5.94
"1616_2",14,"Some",3292,1,5.94
"1616_2",15,"Some",1539,1,5.94
"1616_2",16,"All",888,1,5.94
"1616_2",17,"Some",2253,1,5.94
"1616_2",18,"All",868,1,5.94
"1616_2",20,"None",3530,1,5.94
"1616_2",21,"All",3418,1,5.94
"1616_2",22,"Some",1226,1,5.94
"1616_2",23,"All",1539,1,5.94
"1616_2",24,"None",7119,1,5.94
"1616_2",25,"All",2549,1,5.94
"1616_2",26,"Some",2387,1,5.94
"1616_2",27,"Some",2423,1,5.94
"1616_2",29,"None",8062,1,5.94
"1616_2",30,"Some",1923,1,5.94
"1616_1",1,"All",12611,1,4
"1616_5",1,"All",2304,0,5.63
"1616_5",3,"None",4280,0,5.63
"1616_5",4,"Some",2025,0,5.63
"1616_5",5,"All",718,1,5.63
"1616_5",6,"None",2053,1,5.63
"1616_5",7,"Some",1351,1,5.63
"1616_5",8,"All",2688,1,5.63
"1616_5",9,"All",710,1,5.63
"1616_5",10,"None",1848,1,5.63
"1616_5",11,"None",1213,1,5.63
"1616_5",12,"Some",1439,1,5.63
"1616_5",13,"All",2638,0,5.63
"1616_5",14,"All",5441,0,5.63
"1616_5",15,"Some",2338,1,5.63
"1616_5",16,"None",1621,1,5.63
"1616_5",17,"None",783,1,5.63
"1616_5",18,"Some",1041,1,5.63
"1616_5",19,"All",2116,1,5.63
"1616_5",20,"None",2201,1,5.63
"1616_5",21,"None",2608,1,5.63
"1616_5",22,"All",1979,1,5.63
"1616_5",23,"Some",976,1,5.63
"1616_5",24,"Some",1433,1,5.63
"1616_5",25,"Some",5901,0,5.63
"1616_5",26,"All",1965,1,5.63
"1616_5",27,"Some",1075,1,5.63
"1616_5",28,"Some",2288,1,5.63
"1616_5",29,"None",2205,1,5.63
"1616_5",30,"None",1153,1,5.63
"1616_8",1,"All",8281,1,5.94
"1616_8",2,"Some",3841,0,5.94
"1616_8",3,"None",9172,1,5.94
"1616_8",4,"All",2027,1,5.94
"1616_8",5,"All",1593,1,5.94
"1616_8",6,"Some",1684,0,5.94
"1616_8",7,"None",2558,1,5.94
"1616_8",8,"None",4092,1,5.94
"1616_8",9,"None",3148,1,5.94
"1616_8",10,"All",1581,1,5.94
"1616_8",11,"None",2581,1,5.94
"1616_8",12,"All",3179,1,5.94
"1616_8",13,"All",2040,1,5.94
"1616_8",14,"All",2362,1,5.94
"1616_8",15,"All",2540,1,5.94
"1616_8",16,"Some",3386,0,5.94
"1616_8",17,"None",1669,1,5.94
"1616_8",18,"None",2100,1,5.94
"1616_8",19,"Some",1613,0,5.94
"1616_8",20,"Some",2360,0,5.94
"1616_8",21,"All",2604,1,5.94
"1616_8",22,"Some",1792,0,5.94
"1616_8",23,"None",2732,1,5.94
"1616_8",24,"None",1687,1,5.94
"1616_8",25,"None",3760,1,5.94
"1616_8",26,"Some",2270,0,5.94
"1616_8",27,"Some",1439,0,5.94
"1616_8",28,"Some",1334,0,5.94
"1616_8",29,"Some",1219,0,5.94
"1616_8",30,"All",1052,1,5.94
"1616_9",1,"All",4074,1,4.06
"1616_9",2,"All",2616,0,4.06
"1616_9",3,"Some",2414,1,4.06
"1616_9",4,"None",4415,1,4.06
"1616_9",5,"Some",2550,1,4.06
"1616_9",6,"All",2719,1,4.06
"1616_9",7,"Some",3313,1,4.06
"1616_9",8,"All",1701,1,4.06
"1616_9",9,"All",2604,1,4.06
"1616_9",10,"None",2552,0,4.06
"1616_9",11,"None",4265,0,4.06
"1616_9",12,"Some",2455,1,4.06
"1616_9",13,"Some",1804,1,4.06
"1616_9",14,"All",2153,0,4.06
"1616_9",15,"None",5115,0,4.06
"1616_9",16,"All",1308,1,4.06
"1616_9",17,"All",2309,1,4.06
"1616_9",18,"None",3209,0,4.06
"1616_9",19,"Some",1183,1,4.06
"1616_9",20,"None",2090,0,4.06
"1616_9",21,"None",3896,0,4.06
"1616_9",22,"None",2315,1,4.06
"1616_9",23,"None",2153,0,4.06
"1616_9",24,"Some",2221,1,4.06
"1616_9",25,"None",3601,1,4.06
"1616_9",26,"All",3268,1,4.06
"1616_9",27,"All",1255,1,4.06
"1616_9",28,"Some",2704,0,4.06
"1616_9",29,"Some",1535,1,4.06
"1616_9",30,"Some",1288,1,4.06
"1716_1",1,"All",10726,0,3.73
"1716_1",2,"None",8157,0,3.73
"1716_1",3,"Some",4943,0,3.73
"1716_1",4,"None",2799,0,3.73
"1716_1",5,"None",8621,0,3.73
"1716_1",6,"None",1347,0,3.73
"1716_1",7,"Some",10645,0,3.73
"1716_1",8,"None",1941,0,3.73
"1716_1",9,"None",3176,0,3.73
"1716_1",10,"None",706,0,3.73
"1716_1",11,"Some",1949,0,3.73
"1716_1",12,"All",1034,1,3.73
"1716_1",13,"All",1693,1,3.73
"1716_1",14,"Some",983,0,3.73
"1716_1",17,"Some",1010,1,3.73
"1716_1",18,"Some",1207,1,3.73
"1716_1",19,"All",7987,1,3.73
"1716_1",20,"Some",870,0,3.73
"1716_2",1,"Some",1688,0,5.05
"1716_2",2,"None",1261,0,5.05
"1716_2",3,"None",2928,0,5.05
"1716_2",4,"All",1597,1,5.05
"1716_2",5,"Some",1284,0,5.05
"1716_2",6,"Some",1849,0,5.05
"1716_2",7,"Some",1590,0,5.05
"1716_2",8,"All",1343,1,5.05
"1716_2",9,"None",1507,0,5.05
"1716_2",10,"Some",1323,0,5.05
"1716_2",11,"All",1334,0,5.05
"1716_2",12,"None",1361,0,5.05
"1716_2",13,"Some",3529,0,5.05
"1716_2",14,"Some",1051,0,5.05
"1716_2",15,"None",1875,0,5.05
"1716_2",16,"All",3123,1,5.05
"1716_2",17,"None",2536,0,5.05
"1716_2",18,"Some",1744,0,5.05
"1716_2",19,"None",1169,0,5.05
"1716_2",20,"None",958,0,5.05
"1716_2",21,"All",1495,1,5.05
"1716_2",22,"All",1852,1,5.05
"1716_2",23,"None",904,0,5.05
"1716_2",24,"All",881,1,5.05
"1716_2",26,"Some",1495,0,5.05
"1716_2",27,"All",1466,1,5.05
"1716_2",28,"All",936,1,5.05
"1716_2",29,"All",1475,1,5.05
"1716_2",30,"None",1405,0,5.05
"1716_3",1,"None",4004,1,4.6
"1716_3",2,"All",3041,1,4.6
"1716_3",3,"Some",4337,1,4.6
"1716_3",4,"Some",3377,1,4.6
"1716_3",5,"All",1950,1,4.6
"1716_3",6,"All",1429,1,4.6
"1716_3",7,"Some",1982,1,4.6
"1716_3",8,"Some",1214,1,4.6
"1716_3",9,"None",5768,1,4.6
"1716_3",10,"Some",2612,1,4.6
"1716_3",11,"Some",1786,1,4.6
"1716_3",12,"Some",3010,1,4.6
"1716_3",13,"None",3365,1,4.6
"1716_3",14,"All",1441,1,4.6
"1716_3",15,"All",3318,1,4.6
"1716_3",16,"None",3247,0,4.6
"1716_3",17,"All",2285,0,4.6
"1716_3",18,"None",2552,0,4.6
"1716_3",19,"All",1705,1,4.6
"1716_3",20,"All",1212,1,4.6
"1716_3",21,"Some",982,1,4.6
"1716_3",22,"None",2187,0,4.6
"1716_3",23,"All",1405,1,4.6
"1716_3",24,"None",1950,0,4.6
"1716_3",25,"Some",1902,1,4.6
"1716_3",26,"All",1148,1,4.6
"1716_3",27,"None",2492,0,4.6
"1716_3",28,"None",3911,0,4.6
"1716_3",29,"Some",3474,1,4.6
"1716_3",30,"None",5474,0,4.6
"1816_1",1,"None",14741,0,4.57
"1816_1",2,"Some",3291,0,4.57
"1816_1",3,"Some",6225,1,4.57
"1816_1",4,"Some",4188,0,4.57
"1816_1",5,"All",3352,1,4.57
"1816_1",6,"None",3887,0,4.57
"1816_1",7,"Some",2084,1,4.57
"1816_1",8,"None",2449,0,4.57
"1816_1",9,"All",2627,0,4.57
"1816_1",10,"All",1470,1,4.57
"1816_1",11,"All",1588,0,4.57
"1816_1",12,"None",1589,0,4.57
"1816_1",13,"All",1400,1,4.57
"1816_1",14,"All",1905,1,4.57
"1816_1",15,"All",1582,1,4.57
"1816_1",16,"All",1554,1,4.57
"1816_1",17,"None",3069,0,4.57
"1816_1",18,"None",1335,0,4.57
"1816_1",19,"Some",1010,0,4.57
"1816_1",20,"None",2492,0,4.57
"1816_1",21,"Some",2200,0,4.57
"1816_1",22,"All",912,1,4.57
"1816_1",23,"None",12393,1,4.57
"1816_1",24,"Some",2971,1,4.57
"1816_1",25,"Some",3333,0,4.57
"1816_1",26,"None",2076,1,4.57
"1816_1",27,"Some",1959,1,4.57
"1816_1",28,"All",1712,1,4.57
"1816_1",29,"None",1538,0,4.57
"1816_1",30,"Some",1234,0,4.57
"1816_2",1,"All",1527,1,4.89
"1816_2",2,"All",1459,1,4.89
"1816_2",3,"Some",4952,0,4.89
"1816_2",4,"Some",1266,1,4.89
"1816_2",5,"All",1570,1,4.89
"1816_2",6,"Some",3099,0,4.89
"1816_2",7,"Some",5794,0,4.89
"1816_2",8,"None",1102,1,4.89
"1816_2",9,"Some",2446,1,4.89
"1816_2",10,"None",7377,0,4.89
"1816_2",11,"Some",1334,0,4.89
"1816_2",12,"All",779,1,4.89
"1816_2",13,"None",7007,0,4.89
"1816_2",14,"None",2217,0,4.89
"1816_2",15,"None",1730,1,4.89
"1816_2",16,"Some",2030,1,4.89
"1816_2",17,"Some",4924,0,4.89
"1816_2",19,"All",1679,0,4.89
"1816_2",20,"All",2028,1,4.89
"1816_2",21,"Some",1168,0,4.89
"1816_2",22,"None",14503,1,4.89
"1816_2",23,"None",2815,0,4.89
"1816_2",24,"None",6622,0,4.89
"1816_2",25,"None",2508,0,4.89
"1816_2",26,"Some",1115,1,4.89
"1816_2",27,"All",1579,0,4.89
"1816_2",28,"None",4020,0,4.89
"1816_2",29,"All",2407,1,4.89
"1816_3",1,"None",2696,1,4.62
"1816_3",2,"None",2629,1,4.62
"1816_3",3,"None",1844,1,4.62
"1816_3",4,"None",1942,1,4.62
"1816_3",5,"All",1979,1,4.62
"1816_3",6,"Some",1875,0,4.62
"1816_3",7,"All",3052,1,4.62
"1816_3",8,"All",1173,1,4.62
"1816_3",9,"None",2109,1,4.62
"1816_3",10,"None",3683,1,4.62
"1816_3",11,"All",4301,1,4.62
"1816_3",12,"Some",2104,1,4.62
"1816_3",13,"All",1449,1,4.62
"1816_3",14,"Some",2358,1,4.62
"1816_3",15,"All",1929,1,4.62
"1816_3",16,"Some",2046,1,4.62
"1816_3",17,"Some",2648,0,4.62
"1816_3",18,"None",4324,1,4.62
"1816_3",19,"All",1336,0,4.62
"1816_3",20,"Some",2105,1,4.62
"1816_3",21,"Some",3763,1,4.62
"1816_3",22,"None",1867,0,4.62
"1816_3",23,"None",4286,0,4.62
"1816_3",25,"All",3279,0,4.62
"1816_3",26,"Some",4258,0,4.62
"1816_3",27,"Some",4798,0,4.62
"1816_3",28,"Some",3376,0,4.62
"1816_3",29,"None",1819,1,4.62
"1816_3",30,"All",1309,0,4.62
"1816_4",1,"All",2096,1,5.81
"1816_4",2,"None",6582,1,5.81
"1816_4",3,"None",1346,1,5.81
"1816_4",4,"All",1054,1,5.81
"1816_4",5,"Some",2707,0,5.81
"1816_4",6,"Some",1421,0,5.81
"1816_4",7,"All",1172,1,5.81
"1816_4",8,"All",2642,1,5.81
"1816_4",9,"All",1322,0,5.81
"1816_4",10,"All",1285,1,5.81
"1816_4",11,"None",1449,1,5.81
"1816_4",12,"Some",1408,0,5.81
"1816_4",13,"Some",1234,0,5.81
"1816_4",14,"None",1856,1,5.81
"1816_4",15,"Some",2142,0,5.81
"1816_4",16,"None",1461,1,5.81
"1816_4",17,"None",1728,1,5.81
"1816_4",18,"All",1045,1,5.81
"1816_4",19,"None",1310,1,5.81
"1816_4",20,"None",1993,1,5.81
"1816_4",21,"None",1375,1,5.81
"1816_4",22,"Some",1135,0,5.81
"1816_4",23,"All",1059,1,5.81
"1816_4",24,"All",1248,1,5.81
"1816_4",25,"All",1423,1,5.81
"1816_4",26,"Some",1137,0,5.81
"1816_4",27,"None",1222,1,5.81
"1816_4",28,"Some",1118,0,5.81
"1816_4",29,"Some",1549,0,5.81
"1816_4",30,"Some",1069,0,5.81
"1816_5",1,"None",2501,1,4.13
"1816_5",2,"Some",1660,0,4.13
"1816_5",3,"Some",2045,0,4.13
"1816_5",4,"Some",1845,0,4.13
"1816_5",5,"All",1747,1,4.13
"1816_5",6,"None",1307,1,4.13
"1816_5",7,"All",1121,1,4.13
"1816_5",8,"None",1266,1,4.13
"1816_5",9,"None",2008,1,4.13
"1816_5",10,"Some",2174,0,4.13
"1816_5",11,"All",1525,1,4.13
"1816_5",12,"All",1711,1,4.13
"1816_5",13,"Some",1987,0,4.13
"1816_5",14,"Some",1493,0,4.13
"1816_5",15,"All",874,1,4.13
"1816_5",16,"All",1729,1,4.13
"1816_5",17,"All",1550,1,4.13
"1816_5",18,"Some",1669,0,4.13
"1816_5",19,"None",1664,1,4.13
"1816_5",20,"Some",2433,0,4.13
"1816_5",21,"None",4708,1,4.13
"1816_5",22,"None",2110,1,4.13
"1816_5",23,"Some",1680,0,4.13
"1816_5",24,"All",1177,1,4.13
"1816_5",25,"All",2267,1,4.13
"1816_5",26,"Some",1500,0,4.13
"1816_5",27,"None",3798,1,4.13
"1816_5",28,"None",1216,1,4.13
"1816_5",29,"None",1706,1,4.13
"1816_5",30,"All",1191,1,4.13
"1816_6",1,"Some",5358,0,4.47
"1816_6",2,"None",4375,0,4.47
"1816_6",3,"Some",4906,0,4.47
"1816_6",4,"Some",3068,0,4.47
"1816_6",5,"All",4240,1,4.47
"1816_6",6,"None",4939,1,4.47
"1816_6",7,"None",4916,0,4.47
"1816_6",8,"All",6308,1,4.47
"1816_6",9,"All",3406,1,4.47
"1816_6",10,"All",3228,1,4.47
"1816_6",11,"None",4172,0,4.47
"1816_6",12,"None",4885,0,4.47
"1816_6",13,"Some",2026,0,4.47
"1816_6",14,"Some",3692,0,4.47
"1816_6",16,"None",4208,0,4.47
"1816_6",17,"Some",4925,0,4.47
"1816_6",18,"All",4448,1,4.47
"1816_6",19,"None",11671,0,4.47
"1816_6",20,"Some",13764,1,4.47
"1816_6",21,"All",13677,1,4.47
"1816_6",22,"None",3378,0,4.47
"1816_6",23,"All",7120,0,4.47
"1816_6",24,"Some",1316,0,4.47
"1816_6",25,"All",5619,0,4.47
"1816_6",26,"Some",3930,0,4.47
"1816_6",27,"All",2969,1,4.47
"1816_6",28,"None",3508,0,4.47
"1816_6",29,"All",2146,1,4.47
"1816_6",30,"None",4027,0,4.47
"11016_1",1,"None",11061,0,4.64
"11016_1",2,"Some",1900,0,4.64
"11016_1",3,"All",2069,1,4.64
"11016_1",4,"All",1856,1,4.64
"11016_1",5,"All",2007,1,4.64
"11016_1",6,"All",2040,1,4.64
"11016_1",7,"None",1845,0,4.64
"11016_1",8,"All",5308,1,4.64
"11016_1",9,"None",5671,0,4.64
"11016_1",10,"None",1130,0,4.64
"11016_1",11,"Some",9586,1,4.64
"11016_1",12,"None",1042,0,4.64
"11016_1",13,"Some",4332,0,4.64
"11016_1",14,"None",7431,0,4.64
"11016_1",15,"Some",1053,0,4.64
"11016_1",16,"Some",1617,0,4.64
"11016_1",17,"All",3009,1,4.64
"11016_1",18,"None",1053,0,4.64
"11016_1",19,"Some",2143,1,4.64
"11016_1",20,"None",1046,0,4.64
"11016_1",21,"Some",1835,0,4.64
"11016_1",22,"Some",1524,0,4.64
"11016_1",23,"Some",1574,0,4.64
"11016_1",24,"All",1417,1,4.64
"11016_1",25,"None",979,0,4.64
"11016_1",26,"Some",3773,1,4.64
"11016_1",27,"All",2163,1,4.64
"11016_1",28,"All",2039,1,4.64
"11016_1",29,"None",2773,0,4.64
"11016_1",30,"All",1140,1,4.64
"11016_2",1,"Some",3024,0,3.71
"11016_2",2,"Some",2366,0,3.71
"11016_2",3,"None",2239,0,3.71
"11016_2",4,"Some",4336,0,3.71
"11016_2",5,"None",1598,0,3.71
"11016_2",6,"All",2429,1,3.71
"11016_2",7,"Some",1739,0,3.71
"11016_2",8,"All",1782,1,3.71
"11016_2",9,"All",2028,1,3.71
"11016_2",10,"All",2695,1,3.71
"11016_2",11,"All",2626,1,3.71
"11016_2",12,"Some",2103,0,3.71
"11016_2",13,"All",3015,1,3.71
"11016_2",14,"Some",2039,0,3.71
"11016_2",15,"All",1874,1,3.71
"11016_2",16,"Some",2552,0,3.71
"11016_2",17,"All",3664,1,3.71
"11016_2",18,"Some",2554,0,3.71
"11016_2",19,"Some",2037,0,3.71
"11016_2",20,"All",4778,1,3.71
"11016_2",21,"Some",1709,0,3.71
"11016_2",22,"None",2563,0,3.71
"11016_2",23,"None",2617,0,3.71
"11016_2",24,"None",1752,0,3.71
"11016_2",25,"None",2657,0,3.71
"11016_2",26,"None",2001,0,3.71
"11016_2",27,"None",1778,0,3.71
"11016_2",28,"None",2187,0,3.71
"11016_2",29,"None",1907,0,3.71
"11016_2",30,"All",1629,1,3.71
"11016_3",1,"None",4780,0,3.46
"11016_3",3,"Some",4002,0,3.46
"11016_3",4,"None",4803,0,3.46
"11016_3",5,"None",5802,0,3.46
"11016_3",6,"None",5174,0,3.46
"11016_3",8,"None",3871,0,3.46
"11016_3",9,"Some",3967,0,3.46
"11016_3",11,"Some",3258,0,3.46
"11016_3",12,"Some",4068,0,3.46
"11016_3",13,"Some",1186,0,3.46
"11016_3",14,"None",3948,1,3.46
"11016_3",15,"All",4264,1,3.46
"11016_3",16,"All",2115,1,3.46
"11016_3",17,"All",4017,1,3.46
"11016_3",18,"None",3533,0,3.46
"11016_3",19,"All",5195,1,3.46
"11016_3",20,"Some",3835,0,3.46
"11016_3",21,"Some",1511,0,3.46
"11016_3",22,"None",4032,0,3.46
"11016_3",23,"None",1037,0,3.46
"11016_3",24,"All",2655,1,3.46
"11016_3",26,"Some",2750,0,3.46
"11016_3",27,"Some",2934,0,3.46
"11016_3",28,"All",1737,1,3.46
"11016_3",30,"None",2014,0,3.46
"11016_4",1,"Some",1537,0,4.52
"11016_4",2,"None",1698,0,4.52
"11016_4",3,"All",1255,1,4.52
"11016_4",4,"Some",5054,1,4.52
"11016_4",5,"All",690,1,4.52
"11016_4",6,"None",3092,1,4.52
"11016_4",7,"None",2293,1,4.52
"11016_4",8,"None",2694,1,4.52
"11016_4",9,"None",3685,1,4.52
"11016_4",10,"Some",2282,1,4.52
"11016_4",11,"None",1785,0,4.52
"11016_4",12,"Some",3821,1,4.52
"11016_4",13,"Some",3007,1,4.52
"11016_4",14,"All",4570,1,4.52
"11016_4",15,"None",3083,1,4.52
"11016_4",16,"All",3998,1,4.52
"11016_4",17,"All",1510,1,4.52
"11016_4",18,"None",2753,1,4.52
"11016_4",19,"Some",3503,1,4.52
"11016_4",20,"Some",2809,1,4.52
"11016_4",21,"Some",3384,1,4.52
"11016_4",22,"All",2428,1,4.52
"11016_4",23,"All",1247,1,4.52
"11016_4",24,"All",2738,1,4.52
"11016_4",25,"Some",1241,1,4.52
"11016_4",26,"Some",2293,1,4.52
"11016_4",27,"None",1959,1,4.52
"11016_4",28,"All",1769,1,4.52
"11016_4",29,"None",2880,1,4.52
"11016_4",30,"All",916,1,4.52
"11016_6",1,"None",7436,0,4.57
"11016_6",2,"None",2186,0,4.57
"11016_6",3,"None",3310,0,4.57
"11016_6",4,"All",6152,1,4.57
"11016_6",5,"All",4901,1,4.57
"11016_6",6,"Some",6023,0,4.57
"11016_6",7,"Some",3324,0,4.57
"11016_6",8,"All",1570,1,4.57
"11016_6",9,"All",1738,1,4.57
"11016_6",10,"None",1519,0,4.57
"11016_6",11,"Some",5682,0,4.57
"11016_6",12,"None",2290,0,4.57
"11016_6",13,"All",1629,1,4.57
"11016_6",14,"Some",1393,0,4.57
"11016_6",15,"Some",5100,0,4.57
"11016_6",16,"None",3280,0,4.57
"11016_6",17,"All",7645,1,4.57
"11016_6",18,"None",5596,0,4.57
"11016_6",19,"All",2564,1,4.57
"11016_6",20,"Some",2561,0,4.57
"11016_6",21,"All",2559,1,4.57
"11016_6",22,"Some",2426,0,4.57
"11016_6",23,"All",2411,1,4.57
"11016_6",24,"None",1575,0,4.57
"11016_6",25,"None",2066,0,4.57
"11016_6",26,"All",2009,1,4.57
"11016_6",27,"Some",3227,0,4.57
"11016_6",28,"Some",3081,0,4.57
"11016_6",29,"Some",2270,0,4.57
"11016_6",30,"None",1971,0,4.57
"11016_78&$""",1,"All",12358,1,4.49
"11016_78&$""",2,"All",1589,1,4.49
"11016_78&$""",3,"None",13464,0,4.49
"11016_78&$""",4,"Some",3436,1,4.49
"11016_78&$""",5,"None",5346,0,4.49
"11016_78&$""",6,"None",3701,0,4.49
"11016_78&$""",7,"All",3070,1,4.49
"11016_78&$""",8,"All",1430,1,4.49
"11016_78&$""",9,"Some",1641,1,4.49
"11016_78&$""",10,"Some",1705,1,4.49
"11016_78&$""",11,"All",3718,1,4.49
"11016_78&$""",12,"Some",2573,1,4.49
"11016_78&$""",13,"None",2667,0,4.49
"11016_78&$""",14,"All",2416,1,4.49
"11016_78&$""",15,"All",4031,1,4.49
"11016_78&$""",16,"Some",1450,1,4.49
"11016_78&$""",17,"None",3624,0,4.49
"11016_78&$""",18,"None",3764,0,4.49
"11016_78&$""",19,"None",3962,0,4.49
"11016_78&$""",20,"All",1361,1,4.49
"11016_78&$""",21,"Some",7375,0,4.49
"11016_78&$""",22,"Some",2209,1,4.49
"11016_78&$""",23,"Some",1905,1,4.49
"11016_78&$""",24,"None",4100,0,4.49
"11016_78&$""",25,"All",2221,1,4.49
"11016_78&$""",26,"None",1244,0,4.49
"11016_78&$""",27,"Some",2976,1,4.49
"11016_78&$""",28,"All",1521,1,4.49
"11016_78&$""",29,"None",2301,0,4.49
"11016_78&$""",30,"Some",2427,1,4.49
"11016_8",1,"None",3332,1,4.8
"11016_8",2,"None",2453,1,4.8
"11016_8",3,"None",2368,1,4.8
"11016_8",4,"Some",2109,0,4.8
"11016_8",5,"All",1928,1,4.8
"11016_8",6,"Some",1795,0,4.8
"11016_8",7,"None",1141,0,4.8
"11016_8",8,"All",2337,1,4.8
"11016_8",9,"Some",2641,0,4.8
"11016_8",10,"All",2825,0,4.8
"11016_8",11,"None",5471,1,4.8
"11016_8",12,"Some",1446,0,4.8
"11016_8",13,"All",1258,1,4.8
"11016_8",14,"None",3074,1,4.8
"11016_8",15,"All",3512,1,4.8
"11016_8",16,"None",2261,1,4.8
"11016_8",17,"All",1419,1,4.8
"11016_8",18,"All",3112,1,4.8
"11016_8",19,"Some",13379,0,4.8
"11016_8",20,"None",3509,1,4.8
"11016_8",21,"All",1462,1,4.8
"11016_8",22,"Some",3883,0,4.8
"11016_8",23,"Some",2405,0,4.8
"11016_8",24,"None",2977,1,4.8
"11016_8",25,"Some",3697,0,4.8
"11016_8",26,"All",2651,1,4.8
"11016_8",27,"All",11830,1,4.8
"11016_8",28,"Some",2428,0,4.8
"11016_8",29,"None",4980,1,4.8
"11016_8",30,"Some",1591,0,4.8
"11016_9",1,"Some",2718,0,4.18
"11016_9",2,"None",4093,1,4.18
"11016_9",3,"All",2022,1,4.18
"11016_9",4,"Some",1942,0,4.18
"11016_9",5,"Some",2414,0,4.18
"11016_9",6,"None",1708,1,4.18
"11016_9",7,"Some",4008,1,4.18
"11016_9",8,"Some",2100,1,4.18
"11016_9",9,"Some",2894,1,4.18
"11016_9",10,"None",1359,1,4.18
"11016_9",11,"None",1795,1,4.18
"11016_9",12,"All",1702,1,4.18
"11016_9",13,"None",1525,1,4.18
"11016_9",14,"None",1268,1,4.18
"11016_9",15,"All",1817,1,4.18
"11016_9",16,"None",1800,1,4.18
"11016_9",17,"All",1499,1,4.18
"11016_9",18,"All",1182,1,4.18
"11016_9",19,"Some",1278,0,4.18
"11016_9",20,"All",1346,1,4.18
"11016_9",21,"All",1988,1,4.18
"11016_9",22,"Some",1448,1,4.18
"11016_9",23,"Some",1193,1,4.18
"11016_9",24,"Some",2320,1,4.18
"11016_9",25,"All",1754,1,4.18
"11016_9",26,"None",1723,1,4.18
"11016_9",27,"None",2128,1,4.18
"11016_9",28,"All",1296,1,4.18
"11016_9",29,"All",1665,1,4.18
"11016_9",30,"None",3602,1,4.18
"11016_10",1,"Some",5923,0,4.46
"11016_10",2,"Some",3923,0,4.46
"11016_10",3,"None",2182,0,4.46
"11016_10",4,"All",2103,1,4.46
"11016_10",5,"None",1361,0,4.46
"11016_10",6,"None",3235,0,4.46
"11016_10",7,"None",2773,0,4.46
"11016_10",8,"All",1497,1,4.46
"11016_10",9,"None",1230,0,4.46
"11016_10",10,"Some",1258,0,4.46
"11016_10",11,"All",1643,1,4.46
"11016_10",12,"All",1327,1,4.46
"11016_10",13,"Some",786,0,4.46
"11016_10",14,"Some",2329,0,4.46
"11016_10",15,"None",2860,0,4.46
"11016_10",16,"All",2091,1,4.46
"11016_10",17,"None",1926,0,4.46
"11016_10",18,"All",2201,1,4.46
"11016_10",19,"None",3869,0,4.46
"11016_10",20,"All",5278,1,4.46
"11016_10",21,"All",1859,1,4.46
"11016_10",22,"Some",3889,0,4.46
"11016_10",23,"None",1118,0,4.46
"11016_10",24,"All",1849,1,4.46
"11016_10",25,"Some",1659,0,4.46
"11016_10",26,"Some",1782,0,4.46
"11016_10",27,"Some",861,0,4.46
"11016_10",28,"None",5683,0,4.46
"11016_10",29,"Some",658,0,4.46
"11016_10",30,"All",1156,1,4.46
"11016_11",1,"All",2100,1,4.76
"11016_11",2,"None",1085,0,4.76
"11016_11",3,"All",1640,1,4.76
"11016_11",4,"None",3731,0,4.76
"11016_11",5,"All",1147,1,4.76
"11016_11",6,"All",732,1,4.76
"11016_11",7,"Some",2113,0,4.76
"11016_11",8,"Some",2399,0,4.76
"11016_11",9,"None",1137,0,4.76
"11016_11",10,"None",1195,0,4.76
"11016_11",11,"All",599,1,4.76
"11016_11",12,"Some",2937,0,4.76
"11016_11",13,"Some",1443,0,4.76
"11016_11",14,"None",1290,0,4.76
"11016_11",15,"None",484,1,4.76
"11016_11",16,"None",2012,0,4.76
"11016_11",17,"None",1027,0,4.76
"11016_11",18,"None",1061,0,4.76
"11016_11",19,"All",1089,1,4.76
"11016_11",20,"Some",794,0,4.76
"11016_11",21,"None",1423,0,4.76
"11016_11",22,"All",783,1,4.76
"11016_11",23,"Some",671,0,4.76
"11016_11",24,"All",969,1,4.76
"11016_11",25,"Some",2377,0,4.76
"11016_11",26,"Some",1405,0,4.76
"11016_11",27,"Some",854,0,4.76
"11016_11",28,"Some",880,0,4.76
"11016_11",29,"All",595,1,4.76
"11016_11",30,"All",1530,1,4.76
"Rs1",1,"All",4034,1,3.72
"Rs1",2,"All",2756,1,3.72
"Rs1",3,"None",1650,0,3.72
"Rs1",4,"None",1289,0,3.72
"Rs1",5,"Some",2704,0,3.72
"Rs1",6,"Some",1536,0,3.72
"Rs1",7,"All",1645,0,3.72
"Rs1",8,"None",3101,0,3.72
"Rs1",10,"None",1537,0,3.72
"Rs1",11,"Some",3932,0,3.72
"Rs1",12,"Some",2153,0,3.72
"Rs1",13,"All",3435,1,3.72
"Rs1",15,"None",1191,0,3.72
"Rs1",16,"None",6609,0,3.72
"Rs1",17,"None",5744,0,3.72
"Rs1",18,"All",822,1,3.72
"Rs1",19,"All",1106,1,3.72
"Rs1",20,"Some",1245,0,3.72
"Rs1",21,"Some",3831,0,3.72
"Rs1",22,"None",2862,0,3.72
"Rs1",23,"None",1361,0,3.72
"Rs1",24,"Some",1287,0,3.72
"Rs1",25,"All",1305,1,3.72
"Rs1",26,"All",8718,1,3.72
"Rs1",27,"Some",10484,0,3.72
"Rs1",28,"All",1111,1,3.72
"Rs1",29,"All",2174,1,3.72
"Rs1",30,"Some",2392,0,3.72
"Rs2",1,"All",6450,1,4.48
"Rs2",2,"Some",1374,0,4.48
"Rs2",3,"None",5854,0,4.48
"Rs2",4,"All",711,1,4.48
"Rs2",5,"All",1237,1,4.48
"Rs2",6,"Some",1015,0,4.48
"Rs2",7,"None",4369,0,4.48
"Rs2",8,"Some",1061,0,4.48
"Rs2",9,"None",896,0,4.48
"Rs2",10,"None",1107,0,4.48
"Rs2",11,"All",1720,0,4.48
"Rs2",12,"None",1457,0,4.48
"Rs2",13,"None",2291,0,4.48
"Rs2",14,"All",3290,0,4.48
"Rs2",15,"None",3613,0,4.48
"Rs2",16,"Some",1518,0,4.48
"Rs2",17,"Some",839,0,4.48
"Rs2",18,"Some",1214,0,4.48
"Rs2",19,"Some",1363,0,4.48
"Rs2",20,"Some",1340,0,4.48
"Rs2",22,"All",1069,0,4.48
"Rs2",23,"All",2970,1,4.48
"Rs2",24,"All",1746,1,4.48
"Rs2",25,"Some",2844,0,4.48
"Rs2",26,"None",1220,0,4.48
"Rs2",27,"None",1782,0,4.48
"Rs2",29,"All",1071,1,4.48
"Rs2",30,"All",625,1,4.48
"Rs3",1,"All",669,1,4.48
"Rs3",2,"None",2916,1,4.48
"Rs3",3,"None",2303,1,4.48
"Rs3",4,"Some",3494,0,4.48
"Rs3",5,"Some",706,0,4.48
"Rs3",6,"All",998,1,4.48
"Rs3",7,"None",2086,1,4.48
"Rs3",8,"Some",1355,0,4.48
"Rs3",9,"None",1421,1,4.48
"Rs3",10,"None",1076,1,4.48
"Rs3",11,"Some",936,0,4.48
"Rs3",12,"All",530,0,4.48
"Rs3",13,"Some",626,0,4.48
"Rs3",14,"All",3046,1,4.48
"Rs3",15,"None",1825,1,4.48
"Rs3",16,"All",1010,1,4.48
"Rs3",17,"All",3278,1,4.48
"Rs3",18,"None",2042,1,4.48
"Rs3",19,"Some",2360,0,4.48
"Rs3",20,"None",2259,1,4.48
"Rs3",21,"Some",1165,0,4.48
"Rs3",22,"All",3729,1,4.48
"Rs3",23,"All",886,1,4.48
"Rs3",24,"All",724,1,4.48
"Rs3",25,"All",1646,1,4.48
"Rs3",26,"None",2741,1,4.48
"Rs3",27,"Some",1056,0,4.48
"Rs3",28,"Some",1456,1,4.48
"Rs3",29,"Some",1856,0,4.48
"Rs3",30,"None",1064,1,4.48
"Rs4",2,"Some",3968,0,4.17
"Rs4",3,"Some",7175,0,4.17
"Rs4",4,"None",9290,0,4.17
"Rs4",5,"Some",2822,0,4.17
"Rs4",6,"Some",2590,0,4.17
"Rs4",7,"None",4233,0,4.17
"Rs4",8,"None",1306,0,4.17
"Rs4",9,"Some",2343,0,4.17
"Rs4",10,"None",2841,0,4.17
"Rs4",11,"None",3007,0,4.17
"Rs4",12,"All",3174,1,4.17
"Rs4",13,"All",3177,1,4.17
"Rs4",14,"Some",2078,0,4.17
"Rs4",15,"Some",1526,0,4.17
"Rs4",16,"All",2980,1,4.17
"Rs4",17,"All",3492,0,4.17
"Rs4",18,"Some",1500,1,4.17
"Rs4",19,"All",2161,0,4.17
"Rs4",20,"Some",6566,1,4.17
"Rs4",21,"None",2905,0,4.17
"Rs4",22,"None",4644,0,4.17
"Rs4",23,"All",3100,1,4.17
"Rs4",24,"All",4309,1,4.17
"Rs4",25,"None",2307,0,4.17
"Rs4",26,"All",2136,1,4.17
"Rs4",27,"All",3002,1,4.17
"Rs4",28,"Some",2965,0,4.17
"Rs4",29,"None",5177,0,4.17
"Rs4",30,"All",3837,1,4.17
"Rs5",1,"None",2048,1,4.94
"Rs5",2,"All",2092,1,4.94
"Rs5",3,"None",2575,1,4.94
"Rs5",4,"All",4309,1,4.94
"Rs5",5,"None",3324,1,4.94
"Rs5",6,"None",2085,1,4.94
"Rs5",7,"All",1397,1,4.94
"Rs5",8,"None",1965,1,4.94
"Rs5",9,"All",2124,1,4.94
"Rs5",10,"None",2225,1,4.94
"Rs5",11,"None",1601,1,4.94
"Rs5",12,"Some",2326,1,4.94
"Rs5",13,"All",1447,1,4.94
"Rs5",14,"All",1682,1,4.94
"Rs5",15,"Some",1797,1,4.94
"Rs5",16,"None",1219,1,4.94
"Rs5",17,"Some",2710,1,4.94
"Rs5",18,"All",1198,1,4.94
"Rs5",19,"Some",1805,1,4.94
"Rs5",20,"Some",2021,1,4.94
"Rs5",21,"Some",1200,1,4.94
"Rs5",22,"All",1460,1,4.94
"Rs5",23,"Some",1580,1,4.94
"Rs5",24,"None",3413,1,4.94
"Rs5",25,"Some",980,1,4.94
"Rs5",26,"None",1267,1,4.94
"Rs5",27,"All",2121,1,4.94
"Rs5",28,"Some",1623,1,4.94
"Rs5",29,"Some",1225,1,4.94
"Rs5",30,"All",981,1,4.94
"Rs6",1,"Some",9674,0,4.77
"Rs6",2,"All",2442,1,4.77
"Rs6",3,"None",2725,1,4.77
"Rs6",4,"Some",2160,0,4.77
"Rs6",5,"None",2132,1,4.77
"Rs6",6,"Some",3031,0,4.77
"Rs6",7,"Some",2061,0,4.77
"Rs6",8,"Some",6281,0,4.77
"Rs6",9,"All",2320,1,4.77
"Rs6",10,"None",3672,1,4.77
"Rs6",11,"Some",2111,0,4.77
"Rs6",12,"None",2210,1,4.77
"Rs6",13,"None",3139,1,4.77
"Rs6",14,"All",1016,1,4.77
"Rs6",15,"All",1777,1,4.77
"Rs6",16,"All",1136,1,4.77
"Rs6",17,"All",1609,1,4.77
"Rs6",18,"Some",3386,0,4.77
"Rs6",19,"All",1551,1,4.77
"Rs6",20,"None",2793,1,4.77
"Rs6",21,"All",1448,1,4.77
"Rs6",22,"None",3467,1,4.77
"Rs6",23,"All",2102,1,4.77
"Rs6",24,"None",3008,1,4.77
"Rs6",25,"Some",2203,0,4.77
"Rs6",26,"None",2013,1,4.77
"Rs6",27,"All",1447,1,4.77
"Rs6",29,"Some",1278,0,4.77
"Rs6",30,"Some",2423,0,4.77
"Rs7",2,"Some",8304,0,3.44
"Rs7",4,"None",6741,0,3.44
"Rs7",5,"All",4679,1,3.44
"Rs7",6,"All",4478,1,3.44
"Rs7",7,"None",3338,0,3.44
"Rs7",8,"Some",3356,0,3.44
"Rs7",9,"All",3437,1,3.44
"Rs7",10,"All",3593,1,3.44
"Rs7",11,"Some",3870,0,3.44
"Rs7",12,"All",3902,1,3.44
"Rs7",13,"All",8328,1,3.44
"Rs7",14,"Some",7230,0,3.44
"Rs7",16,"All",2021,1,3.44
"Rs7",17,"None",2587,0,3.44
"Rs7",18,"Some",6973,0,3.44
"Rs7",19,"None",10214,0,3.44
"Rs7",20,"None",5184,0,3.44
"Rs7",21,"None",3258,0,3.44
"Rs7",23,"None",2106,0,3.44
"Rs7",24,"None",2260,0,3.44
"Rs7",25,"None",3302,0,3.44
"Rs7",26,"Some",5625,0,3.44
"Rs7",27,"Some",5446,0,3.44
"Rs7",28,"All",2730,1,3.44
"Rs7",29,"All",7900,0,3.44
"11316_1",1,"Some",5920,0,3.79
"11316_1",2,"All",3782,0,3.79
"11316_1",3,"Some",4267,1,3.79
"11316_1",4,"Some",2082,0,3.79
"11316_1",5,"Some",4842,1,3.79
"11316_1",6,"Some",3546,1,3.79
"11316_1",7,"None",12609,0,3.79
"11316_1",8,"None",4695,1,3.79
"11316_1",9,"Some",5343,0,3.79
"11316_1",10,"All",6488,1,3.79
"11316_1",11,"None",6560,0,3.79
"11316_1",12,"None",6279,0,3.79
"11316_1",13,"None",2284,0,3.79
"11316_1",14,"None",2099,0,3.79
"11316_1",15,"None",7965,0,3.79
"11316_1",16,"All",5643,1,3.79
"11316_1",17,"Some",2926,1,3.79
"11316_1",18,"None",1730,0,3.79
"11316_1",19,"All",4223,0,3.79
"11316_1",20,"None",4384,0,3.79
"11316_1",21,"All",3127,1,3.79
"11316_1",22,"Some",2565,0,3.79
"11316_1",23,"Some",2441,0,3.79
"11316_1",24,"None",6901,0,3.79
"11316_1",25,"Some",3937,1,3.79
"11316_1",26,"All",4222,1,3.79
"11316_1",27,"All",1554,1,3.79
"11316_1",28,"All",2845,1,3.79
"11316_1",29,"All",4392,1,3.79
"11316_1",30,"All",2495,0,3.79
"11316_3",1,"All",5805,1,3.55
"11316_3",2,"All",1797,1,3.55
"11316_3",3,"All",1604,1,3.55
"11316_3",4,"None",1549,0,3.55
"11316_3",5,"All",2015,1,3.55
"11316_3",6,"All",1438,1,3.55
"11316_3",8,"All",2220,1,3.55
"11316_3",9,"All",4312,1,3.55
"11316_3",11,"All",1327,1,3.55
"11316_3",12,"Some",2497,0,3.55
"11316_3",13,"Some",5675,0,3.55
"11316_3",14,"Some",2367,0,3.55
"11316_3",15,"All",3213,1,3.55
"11316_3",17,"None",4585,1,3.55
"11316_3",18,"Some",3204,0,3.55
"11316_3",19,"None",3472,1,3.55
"11316_3",20,"None",5719,1,3.55
"11316_3",21,"Some",2199,0,3.55
"11316_3",22,"Some",4474,0,3.55
"11316_3",23,"Some",2853,0,3.55
"11316_3",24,"Some",3919,0,3.55
"11316_3",25,"All",2544,1,3.55
"11316_3",26,"None",4037,1,3.55
"11316_3",27,"None",6259,1,3.55
"11316_3",28,"Some",2944,0,3.55
"11316_3",29,"None",7434,0,3.55
"11316_3",30,"Some",2621,0,3.55
"11316_4",1,"None",5675,1,4.45
"11316_4",2,"Some",3185,1,4.45
"11316_4",3,"None",3514,1,4.45
"11316_4",4,"Some",3376,1,4.45
"11316_4",5,"All",2333,1,4.45
"11316_4",6,"All",5135,0,4.45
"11316_4",7,"None",2146,1,4.45
"11316_4",8,"None",1939,1,4.45
"11316_4",9,"Some",1718,1,4.45
"11316_4",10,"All",2245,1,4.45
"11316_4",11,"None",2816,1,4.45
"11316_4",12,"Some",2007,1,4.45
"11316_4",13,"All",2545,1,4.45
"11316_4",14,"Some",2427,1,4.45
"11316_4",15,"None",2378,1,4.45
"11316_4",16,"Some",2943,1,4.45
"11316_4",17,"All",2059,1,4.45
"11316_4",18,"All",2042,1,4.45
"11316_4",19,"Some",1977,1,4.45
"11316_4",20,"All",4170,1,4.45
"11316_4",21,"None",3540,1,4.45
"11316_4",22,"Some",1366,1,4.45
"11316_4",23,"None",4153,1,4.45
"11316_4",24,"None",3601,1,4.45
"11316_4",25,"All",2300,1,4.45
"11316_4",26,"Some",3529,1,4.45
"11316_4",27,"None",1775,1,4.45
"11316_4",28,"Some",1779,1,4.45
"11316_4",29,"All",3368,1,4.45
"11316_4",30,"All",1375,1,4.45
"11316_5",1,"All",757,1,4.65
"11316_5",2,"All",1021,1,4.65
"11316_5",3,"All",1105,1,4.65
"11316_5",4,"Some",1172,0,4.65
"11316_5",5,"Some",1691,0,4.65
"11316_5",6,"All",869,1,4.65
"11316_5",7,"Some",817,0,4.65
"11316_5",8,"None",2184,0,4.65
"11316_5",9,"None",2395,0,4.65
"11316_5",10,"None",2500,0,4.65
"11316_5",11,"All",2970,1,4.65
"11316_5",12,"All",943,1,4.65
"11316_5",13,"Some",842,0,4.65
"11316_5",15,"Some",743,0,4.65
"11316_5",16,"None",1819,0,4.65
"11316_5",17,"Some",1954,1,4.65
"11316_5",18,"None",755,1,4.65
"11316_5",19,"None",1420,0,4.65
"11316_5",20,"Some",2749,0,4.65
"11316_5",21,"Some",6050,0,4.65
"11316_5",22,"None",2396,0,4.65
"11316_5",23,"Some",2420,0,4.65
"11316_5",24,"All",1229,1,4.65
"11316_5",25,"None",2566,0,4.65
"11316_5",26,"Some",1103,0,4.65
"11316_5",27,"All",1144,1,4.65
"11316_5",28,"All",2968,1,4.65
"11316_5",29,"All",2500,1,4.65
"11316_5",30,"None",2472,0,4.65
"11316_6",1,"None",2738,0,3.06
"11316_6",2,"Some",4583,1,3.06
"11316_6",3,"Some",1533,1,3.06
"11316_6",4,"All",3849,0,3.06
"11316_6",1,"Some",1208,1,3.06
"11316_6",2,"None",3368,0,3.06
"11316_6",3,"Some",2632,1,3.06
"11316_6",4,"Some",1775,1,3.06
"11316_6",5,"All",4096,1,3.06
"11316_6",6,"None",5104,0,3.06
"11316_6",7,"All",2223,1,3.06
"11316_6",8,"All",1544,1,3.06
"11316_6",9,"All",4650,0,3.06
"11316_6",11,"All",1979,1,3.06
"11316_6",12,"None",4462,0,3.06
"11316_6",13,"All",2799,0,3.06
"11316_6",14,"Some",3422,1,3.06
"11316_6",15,"None",1054,0,3.06
"11316_6",17,"Some",1003,0,3.06
"11316_6",18,"Some",3018,0,3.06
"11316_6",21,"Some",466,0,3.06
"11316_6",22,"Some",2044,1,3.06
"11316_6",23,"None",1181,0,3.06
"11316_6",24,"Some",1428,0,3.06
"11316_6",25,"All",3456,1,3.06
"11316_6",27,"All",1988,1,3.06
"11316_6",28,"None",3965,0,3.06
"11316_6",29,"None",1614,0,3.06
"11316_6",30,"None",2309,0,3.06
"Rs8",1,"None",12475,1,5.19
"Rs8",2,"Some",13341,1,5.19
"Rs8",3,"None",2414,1,5.19
"Rs8",4,"Some",3485,1,5.19
"Rs8",5,"Some",2111,1,5.19
"Rs8",6,"None",2814,1,5.19
"Rs8",7,"Some",1619,1,5.19
"Rs8",8,"All",2849,1,5.19
"Rs8",9,"None",4940,1,5.19
"Rs8",10,"None",5124,1,5.19
"Rs8",11,"None",3972,1,5.19
"Rs8",12,"Some",2733,1,5.19
"Rs8",13,"Some",2116,1,5.19
"Rs8",14,"All",1394,1,5.19
"Rs8",15,"All",3860,1,5.19
"Rs8",16,"None",13045,1,5.19
"Rs8",17,"Some",4158,1,5.19
"Rs8",18,"None",10235,1,5.19
"Rs8",19,"All",1642,1,5.19
"Rs8",20,"All",3274,1,5.19
"Rs8",21,"All",1770,1,5.19
"Rs8",22,"All",3422,1,5.19
"Rs8",23,"None",2956,1,5.19
"Rs8",24,"Some",2407,1,5.19
"Rs8",25,"Some",2008,1,5.19
"Rs8",26,"All",2532,1,5.19
"Rs8",27,"All",5028,1,5.19
"Rs8",28,"None",2214,1,5.19
"Rs8",29,"All",1890,1,5.19
"Rs8",30,"Some",2014,1,5.19
"Rs9",1,"None",2433,0,3.91
"Rs9",2,"Some",1887,1,3.91
"Rs9",3,"Some",8965,0,3.91
"Rs9",4,"Some",5315,1,3.91
"Rs9",5,"None",5246,0,3.91
"Rs9",6,"Some",1581,0,3.91
"Rs9",7,"Some",10981,0,3.91
"Rs9",8,"Some",2465,0,3.91
"Rs9",9,"Some",9237,1,3.91
"Rs9",10,"None",2037,0,3.91
"Rs9",11,"None",2845,0,3.91
"Rs9",12,"None",10973,0,3.91
"Rs9",13,"All",6172,1,3.91
"Rs9",14,"None",2359,0,3.91
"Rs9",16,"Some",2056,0,3.91
"Rs9",18,"All",2513,1,3.91
"Rs9",19,"Some",6694,0,3.91
"Rs9",20,"None",14428,1,3.91
"Rs9",22,"Some",6514,0,3.91
"Rs9",23,"All",7532,1,3.91
"Rs9",24,"All",1581,1,3.91
"Rs9",25,"None",1626,0,3.91
"Rs9",26,"All",6299,1,3.91
"Rs9",28,"None",3028,0,3.91
"Rs9",29,"All",12763,1,3.91
"11316_7",1,"None",1300,0,4.04
"11316_7",2,"None",832,0,4.04
"11316_7",3,"None",3034,0,4.04
"11316_7",4,"None",2114,1,4.04
"11316_7",5,"Some",1391,1,4.04
"11316_7",6,"None",2158,0,4.04
"11316_7",7,"All",1200,1,4.04
"11316_7",10,"Some",2274,1,4.04
"11316_7",11,"None",4366,0,4.04
"11316_7",12,"None",1273,1,4.04
"11316_7",13,"Some",2045,1,4.04
"11316_7",14,"All",4107,1,4.04
"11316_7",15,"All",1909,1,4.04
"11316_7",16,"All",1528,1,4.04
"11316_7",17,"Some",8743,0,4.04
"11316_7",18,"Some",4530,1,4.04
"11316_7",19,"Some",8890,0,4.04
"11316_7",20,"All",3309,1,4.04
"11316_7",21,"Some",3433,0,4.04
"11316_7",22,"Some",1844,0,4.04
"11316_7",23,"All",2314,1,4.04
"11316_7",24,"None",1574,0,4.04
"11316_7",25,"Some",3556,0,4.04
"11316_7",26,"All",3113,0,4.04
"11316_7",27,"All",1622,1,4.04
"11316_7",28,"Some",4351,0,4.04
"11316_7",29,"None",2819,0,4.04
"11316_7",30,"All",2421,0,4.04
"Rs10",1,"Some",2447,1,3.62
"Rs10",2,"None",2345,0,3.62
"Rs10",3,"All",3879,1,3.62
"Rs10",4,"All",2950,1,3.62
"Rs10",5,"All",2620,1,3.62
"Rs10",6,"None",1407,0,3.62
"Rs10",7,"Some",1571,0,3.62
"Rs10",8,"Some",4482,0,3.62
"Rs10",9,"All",1706,1,3.62
"Rs10",10,"None",1664,0,3.62
"Rs10",11,"Some",1803,0,3.62
"Rs10",12,"All",9559,1,3.62
"Rs10",13,"None",2419,0,3.62
"Rs10",14,"Some",2386,0,3.62
"Rs10",15,"Some",1859,0,3.62
"Rs10",16,"All",1588,1,3.62
"Rs10",17,"All",2166,1,3.62
"Rs10",18,"None",2057,0,3.62
"Rs10",19,"None",9710,0,3.62
"Rs10",20,"All",1853,1,3.62
"Rs10",21,"All",1448,1,3.62
"Rs10",22,"Some",1902,0,3.62
"Rs10",23,"None",3041,0,3.62
"Rs10",24,"None",5528,0,3.62
"Rs10",25,"None",1592,0,3.62
"Rs10",26,"Some",1687,0,3.62
"Rs10",27,"Some",1597,0,3.62
"Rs10",28,"Some",2251,0,3.62
"Rs10",29,"All",2188,1,3.62
"Rs10",30,"None",2313,0,3.62
"11316_8",2,"All",1704,1,4.98
"11316_8",3,"Some",2623,0,4.98
"11316_8",4,"None",3735,1,4.98
"11316_8",6,"All",2071,1,4.98
"11316_8",7,"None",2082,1,4.98
"11316_8",8,"All",1050,1,4.98
"11316_8",9,"All",1480,1,4.98
"11316_8",10,"All",1619,1,4.98
"11316_8",11,"Some",2267,0,4.98
"11316_8",12,"Some",1515,0,4.98
"11316_8",13,"Some",2467,1,4.98
"11316_8",14,"All",950,1,4.98
"11316_8",15,"None",2189,1,4.98
"11316_8",16,"None",1418,1,4.98
"11316_8",17,"All",1621,1,4.98
"11316_8",18,"None",6981,1,4.98
"11316_8",19,"All",2140,1,4.98
"11316_8",20,"All",1574,1,4.98
"11316_8",21,"Some",3217,1,4.98
"11316_8",22,"Some",3005,1,4.98
"11316_8",23,"None",1922,1,4.98
"11316_8",24,"None",4373,1,4.98
"11316_8",25,"None",2369,1,4.98
"11316_8",26,"Some",2540,1,4.98
"11316_8",27,"All",1538,1,4.98
"11316_8",28,"Some",3352,1,4.98
"11316_8",29,"Some",6479,1,4.98
"11316_8",30,"None",3916,1,4.98
"11316_9",1,"All",4238,1,3.27
"11316_9",2,"None",4486,0,3.27
"11316_9",3,"Some",4170,1,3.27
"11316_9",4,"None",4650,0,3.27
"11316_9",5,"Some",6366,0,3.27
"11316_9",6,"All",5189,1,3.27
"11316_9",7,"All",5170,1,3.27
"11316_9",8,"All",4475,1,3.27
"11316_9",9,"None",4065,0,3.27
"11316_9",10,"All",4570,1,3.27
"11316_9",11,"Some",4132,0,3.27
"11316_9",12,"Some",5604,0,3.27
"11316_9",13,"Some",2117,0,3.27
"11316_9",14,"All",3896,1,3.27
"11316_9",15,"All",3522,1,3.27
"11316_9",16,"Some",4169,0,3.27
"11316_9",17,"All",4212,1,3.27
"11316_9",18,"Some",8559,0,3.27
"11316_9",19,"Some",2800,0,3.27
"11316_9",20,"Some",3255,0,3.27
"11316_9",21,"None",2719,0,3.27
"11316_9",22,"None",2268,0,3.27
"11316_9",23,"All",2696,1,3.27
"11316_9",24,"None",2619,0,3.27
"11316_9",25,"None",2236,0,3.27
"11316_9",26,"None",2469,1,3.27
"11316_9",27,"None",1369,0,3.27
"11316_9",28,"None",1777,1,3.27
"11316_9",29,"Some",3317,0,3.27
"11316_10",1,"All",1595,0,4.97
"11316_10",2,"All",3303,1,4.97
"11316_10",3,"Some",5981,0,4.97
"11316_10",4,"Some",3149,0,4.97
"11316_10",5,"None",6332,1,4.97
"11316_10",6,"None",2042,1,4.97
"11316_10",7,"Some",3690,1,4.97
"11316_10",8,"All",2125,1,4.97
"11316_10",9,"Some",6411,1,4.97
"11316_10",10,"All",1350,1,4.97
"11316_10",11,"None",3362,1,4.97
"11316_10",12,"All",1572,1,4.97
"11316_10",13,"None",2915,1,4.97
"11316_10",14,"None",3269,1,4.97
"11316_10",15,"Some",1664,0,4.97
"11316_10",16,"All",1474,1,4.97
"11316_10",17,"All",2822,1,4.97
"11316_10",18,"Some",1628,0,4.97
"11316_10",19,"Some",5818,0,4.97
"11316_10",20,"Some",2041,0,4.97
"11316_10",21,"None",1810,1,4.97
"11316_10",22,"None",3512,1,4.97
"11316_10",23,"All",1972,1,4.97
"11316_10",24,"None",1873,1,4.97
"11316_10",25,"Some",1516,0,4.97
"11316_10",26,"Some",2172,0,4.97
"11316_10",27,"None",1752,1,4.97
"11316_10",28,"All",3849,1,4.97
"11316_10",29,"All",1185,1,4.97
"11316_10",30,"None",6156,1,4.97
"11316_11",1,"None",2862,1,4.97
"11316_11",2,"Some",5676,1,4.97
"11316_11",3,"Some",6111,1,4.97
"11316_11",4,"None",2573,1,4.97
"11316_11",5,"None",2435,1,4.97
"11316_11",6,"Some",2661,1,4.97
"11316_11",7,"None",2690,1,4.97
"11316_11",8,"All",3028,0,4.97
"11316_11",9,"None",2056,0,4.97
"11316_11",10,"None",4505,1,4.97
"11316_11",11,"None",2563,1,4.97
"11316_11",12,"All",1879,1,4.97
"11316_11",13,"None",2133,0,4.97
"11316_11",14,"Some",3826,1,4.97
"11316_11",15,"None",2677,1,4.97
"11316_11",16,"All",1926,1,4.97
"11316_11",17,"All",3561,1,4.97
"11316_11",18,"All",1763,1,4.97
"11316_11",19,"Some",2645,1,4.97
"11316_11",20,"None",1983,1,4.97
"11316_11",21,"Some",2247,1,4.97
"11316_11",22,"Some",2497,1,4.97
"11316_11",23,"Some",1863,1,4.97
"11316_11",24,"Some",2186,1,4.97
"11316_11",25,"All",1080,1,4.97
"11316_11",26,"All",2129,1,4.97
"11316_11",27,"Some",1867,1,4.97
"11316_11",28,"All",740,1,4.97
"11316_11",29,"All",1520,1,4.97
"11316_11",30,"All",1620,1,4.97
"11416_1",1,"None",9762,1,3.92
"11416_1",3,"None",1494,0,3.92
"11416_1",4,"Some",1481,0,3.92
"11416_1",5,"Some",7716,0,3.92
"11416_1",6,"None",1386,0,3.92
"11416_1",8,"All",3154,1,3.92
"11416_1",9,"All",1203,1,3.92
"11416_1",10,"All",2316,1,3.92
"11416_1",11,"Some",2236,0,3.92
"11416_1",13,"None",14339,1,3.92
"11416_1",14,"None",3273,0,3.92
"11416_1",16,"All",11543,1,3.92
"11416_1",17,"All",13025,1,3.92
"11416_1",18,"Some",4726,0,3.92
"11416_1",19,"Some",4522,1,3.92
"11416_1",21,"Some",4604,0,3.92
"11416_1",23,"None",8098,1,3.92
"11416_1",25,"Some",2288,0,3.92
"11416_1",26,"Some",2538,0,3.92
"11416_2",1,"All",1497,1,5
"11416_2",2,"All",1954,1,5
"11416_2",3,"None",3249,1,5
"11416_2",4,"All",1769,1,5
"11416_2",5,"None",1899,0,5
"11416_2",6,"All",1103,1,5
"11416_2",7,"Some",2212,1,5
"11416_2",8,"Some",1737,1,5
"11416_2",9,"All",1325,1,5
"11416_2",10,"None",1486,0,5
"11416_2",11,"Some",2102,1,5
"11416_2",12,"All",1437,1,5
"11416_2",14,"None",1936,0,5
"11416_2",15,"Some",5172,0,5
"11416_2",16,"Some",1639,1,5
"11416_2",17,"Some",2309,0,5
"11416_2",18,"None",1643,0,5
"11416_2",19,"Some",2931,1,5
"11416_2",20,"All",2442,1,5
"11416_2",21,"None",1622,0,5
"11416_2",22,"All",2302,1,5
"11416_2",23,"Some",2127,0,5
"11416_2",24,"Some",1953,0,5
"11416_2",25,"None",1620,0,5
"11416_2",26,"None",1899,0,5
"11416_2",27,"All",1695,1,5
"11416_2",28,"None",1683,0,5
"11416_2",29,"None",1983,0,5
"11416_2",30,"Some",1645,1,5
"11416_3",1,"Some",1024,0,4.3
"11416_3",2,"Some",1483,0,4.3
"11416_3",3,"None",3405,0,4.3
"11416_3",6,"Some",1323,0,4.3
"11416_3",7,"Some",2220,0,4.3
"11416_3",8,"All",2176,1,4.3
"11416_3",9,"Some",1514,0,4.3
"11416_3",10,"Some",1357,0,4.3
"11416_3",11,"All",1703,1,4.3
"11416_3",12,"All",1178,1,4.3
"11416_3",13,"None",1857,0,4.3
"11416_3",14,"Some",1142,0,4.3
"11416_3",15,"None",2431,1,4.3
"11416_3",16,"All",1516,1,4.3
"11416_3",17,"All",1640,1,4.3
"11416_3",18,"None",1946,0,4.3
"11416_3",19,"All",2390,1,4.3
"11416_3",20,"All",1198,1,4.3
"11416_3",21,"None",1965,0,4.3
"11416_3",22,"Some",3239,0,4.3
"11416_3",23,"None",4520,0,4.3
"11416_3",24,"None",1389,0,4.3
"11416_3",25,"All",1511,1,4.3
"11416_3",26,"None",1876,0,4.3
"11416_3",27,"All",1930,0,4.3
"11416_3",28,"Some",945,0,4.3
"11416_3",29,"None",3224,1,4.3
"11416_3",30,"All",2105,1,4.3
"11416_4",1,"Some",5039,1,4.74
"11416_4",2,"All",2525,1,4.74
"11416_4",3,"All",2303,1,4.74
"11416_4",4,"None",5015,1,4.74
"11416_4",5,"None",2474,1,4.74
"11416_4",6,"All",2231,1,4.74
"11416_4",7,"Some",3375,1,4.74
"11416_4",8,"None",2522,1,4.74
"11416_4",9,"All",1280,1,4.74
"11416_4",10,"All",2040,1,4.74
"11416_4",11,"Some",1987,1,4.74
"11416_4",12,"Some",2766,1,4.74
"11416_4",13,"Some",1308,1,4.74
"11416_4",14,"None",2565,1,4.74
"11416_4",15,"All",1660,1,4.74
"11416_4",17,"Some",1672,1,4.74
"11416_4",18,"None",2675,1,4.74
"11416_4",19,"Some",2315,1,4.74
"11416_4",20,"Some",14361,1,4.74
"11416_4",21,"None",2315,1,4.74
"11416_4",22,"None",1987,1,4.74
"11416_4",23,"None",2765,1,4.74
"11416_4",24,"None",2364,1,4.74
"11416_4",25,"All",3793,1,4.74
"11416_4",26,"All",1866,1,4.74
"11416_4",27,"Some",1210,1,4.74
"11416_4",28,"None",1631,1,4.74
"11416_4",29,"All",878,1,4.74
"11416_4",30,"Some",2339,0,4.74
"11416_5",1,"Some",5431,0,3.98
"11416_5",2,"All",11037,1,3.98
"11416_5",3,"None",2716,0,3.98
"11416_5",4,"None",12429,0,3.98
"11416_5",5,"None",1560,1,3.98
"11416_5",6,"Some",1976,0,3.98
"11416_5",7,"None",9151,0,3.98
"11416_5",8,"All",2389,0,3.98
"11416_5",9,"All",2287,1,3.98
"11416_5",10,"None",1592,0,3.98
"11416_5",11,"None",4083,0,3.98
"11416_5",12,"None",874,0,3.98
"11416_5",13,"Some",6852,1,3.98
"11416_5",14,"Some",1319,0,3.98
"11416_5",15,"All",2811,1,3.98
"11416_5",17,"All",1089,0,3.98
"11416_5",18,"Some",4174,0,3.98
"11416_5",19,"Some",3815,0,3.98
"11416_5",20,"All",3104,0,3.98
"11416_5",21,"None",5281,1,3.98
"11416_5",22,"All",2594,1,3.98
"11416_5",24,"Some",2293,0,3.98
"11416_5",25,"All",1736,1,3.98
"11416_5",26,"None",1199,1,3.98
"11416_5",27,"All",3101,1,3.98
"11416_5",28,"Some",1251,0,3.98
"11416_5",29,"None",2522,0,3.98
"11416_5",30,"Some",7622,0,3.98
"11516_1",1,"Some",2070,0,5.86
"11516_1",2,"Some",1604,0,5.86
"11516_1",3,"None",4104,1,5.86
"11516_1",4,"All",1816,1,5.86
"11516_1",5,"All",1874,0,5.86
"11516_1",6,"None",2577,1,5.86
"11516_1",7,"Some",1790,1,5.86
"11516_1",8,"Some",3060,1,5.86
"11516_1",9,"Some",797,1,5.86
"11516_1",10,"None",1577,1,5.86
"11516_1",11,"Some",1762,1,5.86
"11516_1",12,"Some",1545,1,5.86
"11516_1",13,"All",2773,0,5.86
"11516_1",14,"Some",1815,1,5.86
"11516_1",15,"All",939,1,5.86
"11516_1",16,"Some",2061,1,5.86
"11516_1",17,"All",1361,1,5.86
"11516_1",18,"None",1013,1,5.86
"11516_1",19,"Some",1964,1,5.86
"11516_1",20,"None",1070,1,5.86
"11516_1",21,"None",1279,1,5.86
"11516_1",22,"None",1428,1,5.86
"11516_1",24,"All",1214,1,5.86
"11516_1",25,"All",842,1,5.86
"11516_1",26,"All",1267,1,5.86
"11516_1",27,"None",2377,1,5.86
"11516_1",28,"None",354,1,5.86
"11516_1",29,"All",1608,1,5.86
"11516_1",30,"All",1129,1,5.86
"11516_2",1,"None",1512,0,3.97
"11516_2",2,"None",2466,1,3.97
"11516_2",3,"All",5108,1,3.97
"11516_2",4,"None",2527,1,3.97
"11516_2",5,"All",6341,1,3.97
"11516_2",6,"None",1788,0,3.97
"11516_2",7,"All",1834,1,3.97
"11516_2",8,"Some",1710,1,3.97
"11516_2",9,"None",1143,0,3.97
"11516_2",10,"All",1131,0,3.97
"11516_2",11,"None",1341,1,3.97
"11516_2",12,"Some",1545,0,3.97
"11516_2",13,"Some",1722,0,3.97
"11516_2",14,"All",2361,1,3.97
"11516_2",15,"All",1002,1,3.97
"11516_2",16,"Some",1453,0,3.97
"11516_2",17,"All",1557,1,3.97
"11516_2",18,"All",2164,1,3.97
"11516_2",19,"None",2127,1,3.97
"11516_2",20,"All",4335,1,3.97
"11516_2",21,"None",3305,1,3.97
"11516_2",22,"None",4534,1,3.97
"11516_2",23,"Some",3319,0,3.97
"11516_2",24,"None",2549,1,3.97
"11516_2",25,"Some",2750,0,3.97
"11516_2",26,"Some",2770,1,3.97
"11516_2",27,"Some",3730,0,3.97
"11516_2",28,"Some",2875,0,3.97
"11516_2",29,"Some",3273,0,3.97
"11516_2",30,"All",6822,1,3.97
"11516_3",1,"None",8550,0,3.48
"11516_3",2,"Some",1849,0,3.48
"11516_3",3,"Some",1726,0,3.48
"11516_3",4,"Some",2328,0,3.48
"11516_3",5,"All",2470,1,3.48
"11516_3",6,"None",2742,0,3.48
"11516_3",7,"None",1773,0,3.48
"11516_3",8,"Some",2500,0,3.48
"11516_3",9,"All",2263,1,3.48
"11516_3",10,"All",2686,1,3.48
"11516_3",11,"None",1458,0,3.48
"11516_3",12,"All",1979,1,3.48
"11516_3",13,"All",2416,0,3.48
"11516_3",14,"None",2645,0,3.48
"11516_3",15,"All",1775,0,3.48
"11516_3",16,"All",2461,1,3.48
"11516_3",17,"All",5644,0,3.48
"11516_3",18,"Some",2590,1,3.48
"11516_3",19,"Some",1957,0,3.48
"11516_3",20,"None",2850,1,3.48
"11516_3",21,"None",6062,1,3.48
"11516_3",22,"Some",4251,0,3.48
"11516_3",23,"None",4427,1,3.48
"11516_3",24,"None",2239,1,3.48
"11516_3",25,"All",3070,0,3.48
"11516_3",26,"All",1424,0,3.48
"11516_3",27,"Some",4306,0,3.48
"11516_3",28,"Some",7052,0,3.48
"11516_3",29,"None",3709,1,3.48
"11516_3",30,"Some",7670,0,3.48
"11516_4",1,"Some",1697,0,5.22
"11516_4",2,"Some",5239,0,5.22
"11516_4",3,"None",1753,0,5.22
"11516_4",4,"All",1747,1,5.22
"11516_4",5,"Some",1418,0,5.22
"11516_4",6,"Some",968,0,5.22
"11516_4",7,"None",1177,0,5.22
"11516_4",8,"None",1672,0,5.22
"11516_4",9,"All",2139,1,5.22
"11516_4",10,"Some",2958,0,5.22
"11516_4",11,"All",389,1,5.22
"11516_4",12,"Some",1633,0,5.22
"11516_4",13,"All",1160,1,5.22
"11516_4",14,"Some",4994,0,5.22
"11516_4",15,"All",5784,1,5.22
"11516_4",16,"None",1717,0,5.22
"11516_4",17,"None",1550,0,5.22
"11516_4",18,"None",7707,1,5.22
"11516_4",19,"All",913,1,5.22
"11516_4",20,"All",959,1,5.22
"11516_4",21,"Some",5628,1,5.22
"11516_4",22,"All",1519,1,5.22
"11516_4",23,"None",2651,1,5.22
"11516_4",24,"All",1727,1,5.22
"11516_4",25,"None",5874,0,5.22
"11516_4",26,"Some",1385,0,5.22
"11516_4",27,"None",12956,1,5.22
"11516_4",28,"Some",2315,1,5.22
"11516_4",29,"None",1691,1,5.22
"11516_4",30,"All",4576,1,5.22
"11516_5",1,"Some",4060,0,3.72
"11516_5",2,"All",5040,1,3.72
"11516_5",3,"All",6206,1,3.72
"11516_5",4,"All",5242,1,3.72
"11516_5",5,"None",2013,0,3.72
"11516_5",6,"Some",2083,0,3.72
"11516_5",7,"None",2569,0,3.72
"11516_5",8,"None",1820,0,3.72
"11516_5",9,"None",3077,0,3.72
"11516_5",10,"None",1975,0,3.72
"11516_5",11,"All",2006,1,3.72
"11516_5",12,"Some",3141,0,3.72
"11516_5",13,"All",4226,1,3.72
"11516_5",14,"Some",1851,0,3.72
"11516_5",15,"All",1557,1,3.72
"11516_5",16,"Some",1717,0,3.72
"11516_5",17,"Some",1947,0,3.72
"11516_5",18,"All",2179,1,3.72
"11516_5",19,"Some",6768,0,3.72
"11516_5",20,"None",1566,0,3.72
"11516_5",21,"None",1065,0,3.72
"11516_5",22,"Some",2990,0,3.72
"11516_5",23,"All",1102,0,3.72
"11516_5",24,"None",3693,1,3.72
"11516_5",25,"None",3138,1,3.72
"11516_5",26,"Some",2369,0,3.72
"11516_5",27,"None",4143,0,3.72
"11516_5",28,"Some",4847,1,3.72
"11516_5",29,"All",6840,1,3.72
"11516_5",30,"All",1562,0,3.72
"11516_6",1,"None",11300,0,4.53
"11516_6",2,"None",5055,0,4.53
"11516_6",3,"All",2414,1,4.53
"11516_6",4,"All",2307,1,4.53
"11516_6",5,"None",1754,0,4.53
"11516_6",6,"Some",3129,0,4.53
"11516_6",7,"None",1923,0,4.53
"11516_6",8,"All",2999,1,4.53
"11516_6",9,"None",1448,0,4.53
"11516_6",10,"All",2343,1,4.53
"11516_6",11,"None",2249,0,4.53
"11516_6",12,"All",1401,1,4.53
"11516_6",13,"Some",2440,0,4.53
"11516_6",14,"All",8468,1,4.53
"11516_6",15,"Some",4962,1,4.53
"11516_6",16,"Some",2898,1,4.53
"11516_6",17,"Some",1679,1,4.53
"11516_6",18,"All",1606,1,4.53
"11516_6",19,"Some",3190,0,4.53
"11516_6",20,"All",2827,1,4.53
"11516_6",21,"None",1219,0,4.53
"11516_6",22,"All",1728,1,4.53
"11516_6",23,"None",3118,0,4.53
"11516_6",24,"All",3409,1,4.53
"11516_6",25,"Some",2083,1,4.53
"11516_6",26,"None",2773,0,4.53
"11516_6",27,"Some",1490,1,4.53
"11516_6",28,"Some",1627,1,4.53
"11516_6",29,"None",2773,0,4.53
"11516_6",30,"Some",2699,1,4.53
"11516_7",1,"All",1475,1,4.7
"11516_7",2,"None",12919,1,4.7
"11516_7",3,"None",2903,1,4.7
"11516_7",4,"Some",3947,0,4.7
"11516_7",5,"All",1826,1,4.7
"11516_7",6,"Some",2963,0,4.7
"11516_7",7,"Some",2015,0,4.7
"11516_7",8,"Some",1480,0,4.7
"11516_7",9,"Some",1355,0,4.7
"11516_7",10,"All",1810,1,4.7
"11516_7",11,"Some",1653,0,4.7
"11516_7",12,"None",2102,1,4.7
"11516_7",13,"None",1337,1,4.7
"11516_7",14,"None",1358,1,4.7
"11516_7",15,"None",2517,1,4.7
"11516_7",16,"All",1791,1,4.7
"11516_7",17,"None",1254,1,4.7
"11516_7",18,"All",1080,1,4.7
"11516_7",19,"All",958,1,4.7
"11516_7",20,"Some",984,0,4.7
"11516_7",21,"All",1555,1,4.7
"11516_7",22,"All",1400,1,4.7
"11516_7",23,"Some",2484,0,4.7
"11516_7",24,"None",1505,0,4.7
"11516_7",25,"None",1888,1,4.7
"11516_7",26,"All",885,1,4.7
"11516_7",27,"All",1407,1,4.7
"11516_7",28,"Some",2154,0,4.7
"11516_7",29,"Some",1219,0,4.7
"11516_7",30,"None",2134,1,4.7
"11516_8",1,"None",7610,0,3.41
"11516_8",2,"Some",11925,1,3.41
"11516_8",3,"Some",2639,1,3.41
"11516_8",4,"Some",1434,1,3.41
"11516_8",5,"None",2476,0,3.41
"11516_8",6,"All",1465,1,3.41
"11516_8",7,"All",1866,1,3.41
"11516_8",8,"All",3656,1,3.41
"11516_8",9,"All",1738,1,3.41
"11516_8",10,"None",5200,1,3.41
"11516_8",11,"None",4743,1,3.41
"11516_8",12,"All",1851,1,3.41
"11516_8",13,"None",1528,1,3.41
"11516_8",14,"All",2456,1,3.41
"11516_8",15,"Some",4813,1,3.41
"11516_8",16,"Some",1261,1,3.41
"11516_8",17,"All",1831,1,3.41
"11516_8",18,"Some",1522,1,3.41
"11516_8",19,"All",11540,1,3.41
"11516_8",20,"None",2889,1,3.41
"11516_8",21,"All",3084,1,3.41
"11516_8",22,"All",3104,1,3.41
"11516_8",23,"Some",1629,0,3.41
"11516_8",24,"None",4601,1,3.41
"11516_8",25,"Some",2925,1,3.41
"11516_8",26,"None",4715,1,3.41
"11516_8",27,"Some",5423,1,3.41
"11516_8",28,"None",3368,1,3.41
"11516_8",29,"Some",1659,1,3.41
"11516_9",1,"None",7122,0,4.29
"11516_9",2,"All",13950,1,4.29
"11516_9",3,"None",4350,0,4.29
"11516_9",4,"All",5913,1,4.29
"11516_9",5,"Some",3695,0,4.29
"11516_9",6,"None",4947,0,4.29
"11516_9",7,"Some",3877,0,4.29
"11516_9",8,"All",14888,1,4.29
"11516_9",9,"All",3294,1,4.29
"11516_9",10,"Some",4799,0,4.29
"11516_9",11,"Some",5583,0,4.29
"11516_9",12,"None",2466,0,4.29
"11516_9",13,"Some",2148,0,4.29
"11516_9",14,"Some",1528,0,4.29
"11516_9",15,"None",2662,0,4.29
"11516_9",16,"All",2295,1,4.29
"11516_9",17,"All",2619,1,4.29
"11516_9",18,"All",3010,1,4.29
"11516_9",19,"All",2083,1,4.29
"11516_9",20,"All",2827,1,4.29
"11516_9",21,"All",6978,1,4.29
"11516_9",22,"Some",3359,0,4.29
"11516_9",23,"Some",1850,0,4.29
"11516_9",24,"None",2905,0,4.29
"11516_9",25,"Some",2019,0,4.29
"11516_9",26,"None",3262,0,4.29
"11516_9",27,"None",3053,0,4.29
"11516_9",28,"None",3120,0,4.29
"11516_9",29,"None",2383,0,4.29
"11516_9",30,"Some",2617,0,4.29
"11516_10",1,"Some",5765,0,5.87
"11516_10",2,"Some",1989,0,5.87
"11516_10",3,"Some",1103,0,5.87
"11516_10",4,"None",3389,0,5.87
"11516_10",5,"None",3653,1,5.87
"11516_10",6,"All",1241,1,5.87
"11516_10",7,"Some",1726,0,5.87
"11516_10",8,"None",3467,1,5.87
"11516_10",9,"All",1064,1,5.87
"11516_10",10,"All",1650,1,5.87
"11516_10",11,"None",3793,1,5.87
"11516_10",12,"None",2983,1,5.87
"11516_10",13,"None",2088,1,5.87
"11516_10",14,"None",1815,1,5.87
"11516_10",15,"None",2521,1,5.87
"11516_10",16,"Some",2319,1,5.87
"11516_10",17,"All",2042,1,5.87
"11516_10",18,"Some",2012,1,5.87
"11516_10",19,"Some",2125,1,5.87
"11516_10",20,"All",1240,1,5.87
"11516_10",21,"None",3153,1,5.87
"11516_10",22,"Some",1971,1,5.87
"11516_10",23,"All",1670,0,5.87
"11516_10",24,"All",1705,1,5.87
"11516_10",25,"All",1578,1,5.87
"11516_10",26,"Some",2358,1,5.87
"11516_10",27,"All",1398,1,5.87
"11516_10",28,"None",2906,1,5.87
"11516_10",29,"All",1318,1,5.87
"11516_10",30,"Some",1766,1,5.87
"11516_11",1,"None",3763,1,5.33
"11516_11",2,"All",2401,1,5.33
"11516_11",3,"None",1842,0,5.33
"11516_11",4,"All",3840,0,5.33
"11516_11",5,"Some",1551,0,5.33
"11516_11",6,"Some",1850,0,5.33
"11516_11",7,"Some",1735,0,5.33
"11516_11",8,"None",1446,0,5.33
"11516_11",9,"All",2820,1,5.33
"11516_11",10,"All",1159,1,5.33
"11516_11",11,"All",1594,1,5.33
"11516_11",12,"None",1768,0,5.33
"11516_11",13,"None",1462,0,5.33
"11516_11",14,"None",2798,0,5.33
"11516_11",15,"Some",2587,0,5.33
"11516_11",16,"All",1691,1,5.33
"11516_11",17,"Some",5548,0,5.33
"11516_11",18,"None",1328,0,5.33
"11516_11",19,"Some",1644,0,5.33
"11516_11",20,"Some",1831,0,5.33
"11516_11",21,"None",1034,0,5.33
"11516_11",22,"Some",1551,0,5.33
"11516_11",23,"None",1477,0,5.33
"11516_11",24,"Some",1575,0,5.33
"11516_11",25,"All",1351,1,5.33
"11516_11",26,"All",1536,1,5.33
"11516_11",27,"All",2354,1,5.33
"11516_11",28,"All",1924,1,5.33
"11516_11",29,"Some",2398,0,5.33
"11516_11",30,"None",1766,0,5.33
"11516_12",1,"Some",2468,0,5.47
"11516_12",2,"None",4440,1,5.47
"11516_12",3,"All",1098,1,5.47
"11516_12",4,"All",1825,1,5.47
"11516_12",5,"Some",2521,1,5.47
"11516_12",6,"None",3848,1,5.47
"11516_12",7,"Some",1153,1,5.47
"11516_12",8,"All",1410,1,5.47
"11516_12",9,"All",3196,1,5.47
"11516_12",10,"Some",1444,1,5.47
"11516_12",11,"All",1949,1,5.47
"11516_12",12,"All",1023,1,5.47
"11516_12",13,"None",4113,1,5.47
"11516_12",14,"None",2718,1,5.47
"11516_12",15,"Some",2682,1,5.47
"11516_12",16,"Some",2638,1,5.47
"11516_12",17,"None",1808,1,5.47
"11516_12",18,"All",1320,1,5.47
"11516_12",19,"Some",2895,1,5.47
"11516_12",20,"Some",1010,1,5.47
"11516_12",21,"None",4363,1,5.47
"11516_12",22,"None",1983,1,5.47
"11516_12",24,"All",1011,1,5.47
"11516_12",25,"All",1285,1,5.47
"11516_12",26,"None",1876,1,5.47
"11516_12",27,"None",1419,1,5.47
"11516_12",28,"None",2571,1,5.47
"11516_12",29,"Some",1723,1,5.47
"11516_12",30,"All",1644,1,5.47
"11516_13",1,"Some",4208,0,5.92
"11516_13",2,"Some",2459,0,5.92
"11516_13",3,"All",1819,1,5.92
"11516_13",4,"All",3504,1,5.92
"11516_13",5,"None",2686,1,5.92
"11516_13",6,"All",1066,1,5.92
"11516_13",7,"Some",1451,0,5.92
"11516_13",8,"Some",2053,0,5.92
"11516_13",9,"All",1165,1,5.92
"11516_13",10,"Some",1389,0,5.92
"11516_13",11,"None",2074,1,5.92
"11516_13",12,"None",1707,1,5.92
"11516_13",13,"None",2219,1,5.92
"11516_13",14,"All",1524,1,5.92
"11516_13",15,"Some",934,0,5.92
"11516_13",16,"None",1006,1,5.92
"11516_13",17,"All",1591,1,5.92
"11516_13",18,"Some",1561,0,5.92
"11516_13",19,"Some",1392,0,5.92
"11516_13",20,"All",2531,1,5.92
"11516_13",21,"All",1017,1,5.92
"11516_13",22,"None",1512,1,5.92
"11516_13",23,"None",1361,1,5.92
"11516_13",24,"None",1919,1,5.92
"11516_13",25,"All",1802,0,5.92
"11516_13",26,"Some",1420,0,5.92
"11516_13",27,"None",1558,1,5.92
"11516_13",28,"All",769,1,5.92
"11516_13",29,"None",945,1,5.92
"11516_13",30,"Some",1404,0,5.92
"11516_14",1,"All",7720,0,4.15
"11516_14",2,"All",1686,1,4.15
"11516_14",3,"Some",1894,0,4.15
"11516_14",4,"None",1476,0,4.15
"11516_14",5,"Some",7393,1,4.15
"11516_14",6,"Some",2091,0,4.15
"11516_14",7,"None",1362,0,4.15
"11516_14",8,"None",1347,0,4.15
"11516_14",9,"All",4803,0,4.15
"11516_14",10,"All",3735,1,4.15
"11516_14",11,"All",1391,1,4.15
"11516_14",12,"All",7210,1,4.15
"11516_14",13,"None",7305,0,4.15
"11516_14",14,"Some",1673,0,4.15
"11516_14",15,"Some",1908,0,4.15
"11516_14",16,"Some",5107,0,4.15
"11516_14",17,"All",2534,1,4.15
"11516_14",18,"All",1211,1,4.15
"11516_14",19,"Some",3012,0,4.15
"11516_14",20,"All",10964,0,4.15
"11516_14",21,"None",3110,0,4.15
"11516_14",22,"Some",2454,1,4.15
"11516_14",24,"None",2373,0,4.15
"11516_15",1,"All",3254,0,3.62
"11516_15",2,"None",4527,0,3.62
"11516_15",3,"None",1774,0,3.62
"11516_15",4,"None",1043,0,3.62
"11516_15",5,"None",1361,0,3.62
"11516_15",6,"Some",11673,0,3.62
"11516_15",7,"None",1751,0,3.62
"11516_15",8,"All",2064,1,3.62
"11516_15",9,"None",2391,0,3.62
"11516_15",10,"None",1484,0,3.62
"11516_15",11,"Some",1194,1,3.62
"11516_15",12,"All",2053,1,3.62
"11516_15",13,"Some",1029,0,3.62
"11516_15",14,"All",2516,1,3.62
"11516_15",15,"All",2349,1,3.62
"11516_15",16,"None",5013,1,3.62
"11516_15",17,"Some",1127,0,3.62
"11516_15",18,"All",1335,1,3.62
"11516_15",19,"Some",1514,0,3.62
"11516_15",20,"Some",7551,1,3.62
"11516_15",21,"None",2059,0,3.62
"11516_15",22,"Some",2580,0,3.62
"11516_15",23,"Some",1014,0,3.62
"11516_15",24,"All",2193,1,3.62
"11516_15",25,"Some",3424,1,3.62
"11516_15",26,"All",3244,1,3.62
"11516_15",27,"Some",1922,0,3.62
"11516_15",28,"None",1846,0,3.62
"11516_15",29,"All",1638,1,3.62
"11516_15",30,"All",3607,1,3.62
"11716_1",1,"Some",2504,1,4.92
"11716_1",2,"None",7673,1,4.92
"11716_1",3,"None",2622,1,4.92
"11716_1",4,"None",2226,1,4.92
"11716_1",5,"Some",1938,1,4.92
"11716_1",6,"None",1605,1,4.92
"11716_1",7,"None",5335,1,4.92
"11716_1",8,"All",2139,1,4.92
"11716_1",9,"None",1806,1,4.92
"11716_1",10,"Some",3048,1,4.92
"11716_1",11,"Some",1689,1,4.92
"11716_1",12,"All",1869,1,4.92
"11716_1",13,"All",1406,1,4.92
"11716_1",14,"Some",2891,1,4.92
"11716_1",15,"All",1788,1,4.92
"11716_1",16,"None",1802,1,4.92
"11716_1",17,"All",1055,1,4.92
"11716_1",18,"Some",2219,1,4.92
"11716_1",19,"All",2334,1,4.92
"11716_1",20,"Some",1161,0,4.92
"11716_1",21,"All",1162,1,4.92
"11716_1",22,"All",1194,1,4.92
"11716_1",23,"None",3179,1,4.92
"11716_1",24,"Some",1622,1,4.92
"11716_1",25,"None",1608,0,4.92
"11716_1",26,"Some",3049,1,4.92
"11716_1",27,"None",1817,1,4.92
"11716_1",28,"Some",1919,1,4.92
"11716_1",29,"All",1252,1,4.92
"11716_1",30,"All",962,1,4.92
"11716_2",1,"None",2551,1,4.74
"11716_2",2,"Some",2849,0,4.74
"11716_2",3,"All",1813,1,4.74
"11716_2",4,"Some",3496,1,4.74
"11716_2",5,"None",3386,1,4.74
"11716_2",6,"All",3574,1,4.74
"11716_2",7,"All",2246,1,4.74
"11716_2",8,"None",8033,1,4.74
"11716_2",9,"Some",5489,1,4.74
"11716_2",10,"Some",8039,1,4.74
"11716_2",11,"None",2807,1,4.74
"11716_2",12,"Some",13090,1,4.74
"11716_2",13,"All",6710,1,4.74
"11716_2",14,"All",3188,1,4.74
"11716_2",15,"None",3439,1,4.74
"11716_2",16,"All",1607,1,4.74
"11716_2",17,"All",1861,1,4.74
"11716_2",18,"Some",7377,1,4.74
"11716_2",19,"All",1678,1,4.74
"11716_2",20,"Some",6426,1,4.74
"11716_2",21,"Some",3287,1,4.74
"11716_2",22,"None",4392,1,4.74
"11716_2",23,"None",2544,1,4.74
"11716_2",24,"Some",2491,1,4.74
"11716_2",25,"Some",2145,1,4.74
"11716_2",26,"None",1322,1,4.74
"11716_2",27,"None",2408,1,4.74
"11716_2",28,"None",3692,1,4.74
"11716_2",29,"All",2880,0,4.74
"11716_2",30,"All",3098,1,4.74
"11617_3",1,"Some",6170,0,3.7
"11617_3",2,"Some",6959,0,3.7
"11617_3",3,"All",4341,1,3.7
"11617_3",4,"Some",6782,0,3.7
"11617_3",5,"All",3898,1,3.7
"11617_3",6,"All",6064,1,3.7
"11617_3",7,"Some",7243,0,3.7
"11617_3",8,"None",12287,0,3.7
"11617_3",9,"Some",7858,0,3.7
"11617_3",10,"None",10757,0,3.7
"11617_3",11,"Some",8795,0,3.7
"11617_3",12,"All",3615,1,3.7
"11617_3",13,"All",5653,1,3.7
"11617_3",14,"Some",9390,1,3.7
"11617_3",15,"None",12278,0,3.7
"11617_3",16,"All",4991,1,3.7
"11617_3",17,"None",6288,0,3.7
"11617_3",18,"None",13131,0,3.7
"11617_3",19,"All",3852,1,3.7
"11617_3",20,"All",5006,1,3.7
"11617_3",21,"None",7604,0,3.7
"11617_3",22,"Some",8640,0,3.7
"11617_3",23,"All",14634,1,3.7
"11617_3",24,"All",2347,1,3.7
"11617_3",25,"None",5003,0,3.7
"11617_3",26,"None",3753,0,3.7
"11617_3",27,"None",6578,0,3.7
"11617_3",28,"Some",5973,0,3.7
"11617_3",29,"None",10484,0,3.7
"11617_3",30,"Some",9834,0,3.7
"11716_4",1,"Some",14494,1,3.23
"11716_4",2,"All",8186,0,3.23
"11716_4",3,"All",6558,1,3.23
"11716_4",4,"Some",6954,0,3.23
"11716_4",5,"Some",8531,0,3.23
"11716_4",6,"All",5044,1,3.23
"11716_4",7,"Some",4753,0,3.23
"11716_4",8,"None",6726,0,3.23
"11716_4",9,"None",3173,0,3.23
"11716_4",10,"None",5537,0,3.23
"11716_4",11,"Some",5564,0,3.23
"11716_4",12,"None",4441,0,3.23
"11716_4",13,"Some",5155,0,3.23
"11716_4",14,"All",4012,1,3.23
"11716_4",15,"All",5388,1,3.23
"11716_4",16,"None",4913,0,3.23
"11716_4",17,"Some",4134,0,3.23
"11716_4",18,"None",3486,0,3.23
"11716_4",19,"Some",4388,0,3.23
"11716_4",20,"All",3618,1,3.23
"11716_4",21,"All",4804,1,3.23
"11716_4",22,"None",4941,0,3.23
"11716_4",23,"None",4324,0,3.23
"11716_4",24,"All",3531,1,3.23
"11716_4",25,"Some",4010,0,3.23
"11716_4",26,"All",6417,1,3.23
"11716_4",27,"None",3795,0,3.23
"11716_4",28,"Some",3469,0,3.23
"11716_4",29,"None",3523,0,3.23
"11716_4",30,"All",3319,1,3.23
"11617_5",1,"Some",3880,0,4.35
"11617_5",2,"All",4970,1,4.35
"11617_5",3,"All",2462,0,4.35
"11617_5",4,"None",9260,0,4.35
"11617_5",5,"None",2943,0,4.35
"11617_5",6,"Some",3734,0,4.35
"11617_5",7,"None",2445,1,4.35
"11617_5",8,"All",2101,1,4.35
"11617_5",9,"Some",1326,0,4.35
"11617_5",10,"Some",2206,0,4.35
"11617_5",11,"All",1911,1,4.35
"11617_5",12,"Some",1732,0,4.35
"11617_5",13,"Some",989,0,4.35
"11617_5",14,"None",1689,1,4.35
"11617_5",15,"None",1911,0,4.35
"11617_5",16,"All",820,1,4.35
"11617_5",17,"Some",2193,0,4.35
"11617_5",18,"Some",2317,0,4.35
"11617_5",19,"None",1581,0,4.35
"11617_5",20,"All",1547,0,4.35
"11617_5",21,"Some",1583,0,4.35
"11617_5",22,"All",1847,1,4.35
"11617_5",23,"All",2278,1,4.35
"11617_5",24,"None",2166,0,4.35
"11617_5",25,"Some",1332,0,4.35
"11617_5",26,"All",1452,1,4.35
"11617_5",27,"None",2364,0,4.35
"11617_5",28,"All",2101,0,4.35
"11617_5",29,"None",1961,0,4.35
"11617_5",30,"None",3973,0,4.35
"11617_6",1,"All",2942,1,5.63
"11617_6",2,"All",2092,1,5.63
"11617_6",3,"All",1342,1,5.63
"11617_6",4,"All",1475,1,5.63
"11617_6",5,"Some",9070,0,5.63
"11617_6",6,"None",3611,1,5.63
"11617_6",7,"All",4179,1,5.63
"11617_6",8,"All",2985,1,5.63
"11617_6",9,"Some",1253,0,5.63
"11617_6",10,"All",1771,1,5.63
"11617_6",11,"None",13144,1,5.63
"11617_6",12,"Some",6629,0,5.63
"11617_6",13,"Some",4007,0,5.63
"11617_6",14,"Some",1435,0,5.63
"11617_6",15,"None",2235,1,5.63
"11617_6",16,"None",4287,1,5.63
"11617_6",17,"Some",3341,0,5.63
"11617_6",18,"None",3475,1,5.63
"11617_6",19,"All",6013,1,5.63
"11617_6",20,"Some",1153,0,5.63
"11617_6",21,"None",8070,1,5.63
"11617_6",22,"All",1257,1,5.63
"11617_6",23,"None",1603,1,5.63
"11617_6",24,"Some",972,0,5.63
"11617_6",25,"Some",971,0,5.63
"11617_6",26,"None",3374,1,5.63
"11617_6",27,"All",1103,1,5.63
"11617_6",28,"Some",1390,0,5.63
"11617_6",29,"None",3397,1,5.63
"11617_6",30,"None",6265,1,5.63
"11716_7",1,"All",1913,1,5.63
"11716_7",2,"None",2957,1,5.63
"11716_7",3,"All",1765,1,5.63
"11716_7",4,"All",1125,1,5.63
"11716_7",5,"All",2283,1,5.63
"11716_7",6,"All",3037,1,5.63
"11716_7",7,"Some",2551,1,5.63
"11716_7",8,"Some",2370,1,5.63
"11716_7",9,"All",835,1,5.63
"11716_7",10,"None",1121,1,5.63
"11716_7",11,"Some",3493,1,5.63
"11716_7",12,"Some",446,1,5.63
"11716_7",13,"Some",2200,1,5.63
"11716_7",14,"None",5907,1,5.63
"11716_7",15,"All",1482,1,5.63
"11716_7",16,"None",1559,1,5.63
"11716_7",17,"None",3885,1,5.63
"11716_7",18,"All",4899,1,5.63
"11716_7",19,"None",2082,1,5.63
"11716_7",20,"None",3678,1,5.63
"11716_7",21,"Some",1511,1,5.63
"11716_7",22,"Some",1190,1,5.63
"11716_7",23,"None",1905,1,5.63
"11716_7",24,"All",1085,1,5.63
"11716_7",26,"None",3878,0,5.63
"11716_7",27,"None",2962,1,5.63
"11716_7",28,"Some",2662,1,5.63
"11716_7",29,"Some",3638,1,5.63
"11716_7",30,"All",2512,1,5.63
"11716_8",1,"None",13584,0,3.99
"11716_8",3,"All",1724,0,3.99
"11716_8",4,"All",1451,0,3.99
"11716_8",5,"None",2006,0,3.99
"11716_8",6,"Some",4055,0,3.99
"11716_8",7,"Some",2607,0,3.99
"11716_8",8,"Some",4071,1,3.99
"11716_8",9,"None",4262,0,3.99
"11716_8",10,"Some",1641,0,3.99
"11716_8",11,"All",1559,1,3.99
"11716_8",12,"All",2420,1,3.99
"11716_8",13,"All",2690,1,3.99
"11716_8",14,"Some",2105,0,3.99
"11716_8",15,"Some",1992,0,3.99
"11716_8",16,"None",2411,0,3.99
"11716_8",17,"Some",3123,0,3.99
"11716_8",18,"None",2622,0,3.99
"11716_8",19,"All",4399,0,3.99
"11716_8",20,"Some",1045,0,3.99
"11716_8",21,"All",1561,0,3.99
"11716_8",23,"None",686,0,3.99
"11716_8",24,"Some",2367,0,3.99
"11716_8",25,"None",4410,0,3.99
"11716_8",26,"All",3448,0,3.99
"11716_8",27,"Some",2254,1,3.99
"11716_8",28,"All",3725,0,3.99
"11716_8",29,"All",3095,0,3.99
"11716_8",30,"None",4530,1,3.99
"11716_9",1,"All",3063,1,4.03
"11716_9",2,"None",6704,0,4.03
"11716_9",3,"Some",3574,1,4.03
"11716_9",4,"None",2305,0,4.03
"11716_9",5,"Some",2822,1,4.03
"11716_9",6,"Some",2603,0,4.03
"11716_9",7,"Some",2259,1,4.03
"11716_9",8,"Some",2236,0,4.03
"11716_9",9,"All",3513,0,4.03
"11716_9",10,"All",4163,0,4.03
"11716_9",11,"All",3644,1,4.03
"11716_9",12,"None",8729,0,4.03
"11716_9",13,"None",1784,0,4.03
"11716_9",14,"None",1671,0,4.03
"11716_9",15,"All",1340,1,4.03
"11716_9",16,"None",1473,0,4.03
"11716_9",17,"All",2024,0,4.03
"11716_9",18,"Some",2384,1,4.03
"11716_9",19,"All",1633,0,4.03
"11716_9",20,"Some",2838,0,4.03
"11716_9",21,"None",4063,0,4.03
"11716_9",22,"All",2216,0,4.03
"11716_9",23,"None",3695,0,4.03
"11716_9",24,"Some",2058,0,4.03
"11716_9",25,"None",2288,0,4.03
"11716_9",26,"All",2044,1,4.03
"11716_9",27,"Some",2909,0,4.03
"11716_9",28,"Some",3194,1,4.03
"11716_9",29,"None",1891,0,4.03
"11716_9",30,"All",2233,0,4.03
"11716_11",1,"All",8476,1,3.92
"11716_11",2,"All",2540,1,3.92
"11716_11",3,"All",1983,1,3.92
"11716_11",4,"Some",2723,0,3.92
"11716_11",5,"Some",2274,0,3.92
"11716_11",6,"None",6462,0,3.92
"11716_11",7,"All",1679,1,3.92
"11716_11",8,"All",1700,1,3.92
"11716_11",9,"None",6457,0,3.92
"11716_11",10,"All",1661,1,3.92
"11716_11",11,"Some",1284,0,3.92
"11716_11",12,"Some",1554,0,3.92
"11716_11",13,"Some",7920,0,3.92
"11716_11",14,"All",6337,1,3.92
"11716_11",15,"None",2207,0,3.92
"11716_11",16,"None",1908,0,3.92
"11716_11",17,"All",2319,1,3.92
"11716_11",18,"Some",5844,0,3.92
"11716_11",19,"None",4229,0,3.92
"11716_11",20,"None",3267,0,3.92
"11716_11",21,"None",2849,0,3.92
"11716_11",22,"All",2990,1,3.92
"11716_11",23,"None",1697,0,3.92
"11716_11",24,"Some",3732,0,3.92
"11716_11",25,"None",2104,0,3.92
"11716_11",26,"All",1179,1,3.92
"11716_11",27,"None",1618,0,3.92
"11716_11",28,"Some",1747,0,3.92
"11716_11",29,"Some",2098,0,3.92
"11716_11",30,"Some",1784,0,3.92
"11716_12",1,"All",2072,1,6.45
"11716_12",2,"Some",1170,1,6.45
"11716_12",3,"Some",1669,1,6.45
"11716_12",4,"Some",3527,1,6.45
"11716_12",5,"None",6880,1,6.45
"11716_12",6,"Some",1595,1,6.45
"11716_12",7,"Some",1166,1,6.45
"11716_12",8,"None",2657,1,6.45
"11716_12",9,"All",2177,1,6.45
"11716_12",10,"None",2046,1,6.45
"11716_12",11,"All",1056,1,6.45
"11716_12",12,"Some",2145,1,6.45
"11716_12",13,"None",1571,1,6.45
"11716_12",14,"All",1491,1,6.45
"11716_12",15,"All",1587,1,6.45
"11716_12",16,"Some",3522,1,6.45
"11716_12",17,"None",1817,1,6.45
"11716_12",18,"None",1632,1,6.45
"11716_12",19,"All",2944,1,6.45
"11716_12",20,"Some",2223,1,6.45
"11716_12",21,"None",1784,1,6.45
"11716_12",22,"All",1485,1,6.45
"11716_12",23,"None",2766,1,6.45
"11716_12",24,"All",3070,1,6.45
"11716_12",25,"None",2199,1,6.45
"11716_12",26,"Some",2151,1,6.45
"11716_12",27,"Some",2343,1,6.45
"11716_12",28,"All",3129,1,6.45
"11716_12",29,"None",2153,1,6.45
"11716_12",30,"All",2170,1,6.45
"11716_13",1,"Some",6147,0,5.05
"11716_13",2,"Some",3500,0,5.05
"11716_13",3,"None",6652,0,5.05
"11716_13",4,"Some",1249,0,5.05
"11716_13",5,"None",3848,0,5.05
"11716_13",6,"All",4779,1,5.05
"11716_13",7,"Some",1633,0,5.05
"11716_13",8,"Some",1352,0,5.05
"11716_13",9,"All",1294,1,5.05
"11716_13",10,"All",1512,1,5.05
"11716_13",11,"All",1408,1,5.05
"11716_13",12,"All",2031,1,5.05
"11716_13",13,"All",1582,1,5.05
"11716_13",14,"Some",1380,0,5.05
"11716_13",15,"None",2407,0,5.05
"11716_13",16,"All",2146,1,5.05
"11716_13",17,"None",1456,0,5.05
"11716_13",18,"None",1175,0,5.05
"11716_13",19,"None",1245,0,5.05
"11716_13",20,"Some",1130,0,5.05
"11716_13",21,"None",1607,1,5.05
"11716_13",22,"Some",1742,0,5.05
"11716_13",23,"Some",1592,0,5.05
"11716_13",24,"All",1498,1,5.05
"11716_13",25,"None",1548,0,5.05
"11716_13",26,"None",1443,0,5.05
"11716_13",27,"All",1631,1,5.05
"11716_13",28,"None",1705,0,5.05
"11716_13",29,"Some",1338,0,5.05
"11716_13",30,"All",1476,1,5.05
"11716_15",1,"All",5383,1,3.18
"11716_15",2,"Some",4893,0,3.18
"11716_15",3,"Some",5617,1,3.18
"11716_15",4,"None",7997,0,3.18
"11716_15",5,"All",6257,0,3.18
"11716_15",6,"Some",5279,1,3.18
"11716_15",7,"All",6385,1,3.18
"11716_15",8,"All",5401,1,3.18
"11716_15",9,"Some",5705,0,3.18
"11716_15",10,"Some",6027,0,3.18
"11716_15",11,"None",5977,0,3.18
"11716_15",12,"None",5585,0,3.18
"11716_15",13,"All",5946,1,3.18
"11716_15",14,"Some",9126,1,3.18
"11716_15",15,"None",6391,0,3.18
"11716_15",16,"All",5192,1,3.18
"11716_15",17,"Some",3216,1,3.18
"11716_15",18,"Some",5783,0,3.18
"11716_15",19,"None",7149,1,3.18
"11716_15",20,"All",5632,1,3.18
"11716_15",21,"All",5438,1,3.18
"11716_15",22,"Some",6022,0,3.18
"11716_15",23,"All",5868,1,3.18
"11716_15",24,"None",5525,0,3.18
"11716_15",25,"None",6463,0,3.18
"11716_15",26,"None",9189,0,3.18
"11716_15",27,"Some",5571,0,3.18
"11716_15",28,"All",5006,1,3.18
"11716_15",29,"None",3504,0,3.18
"11716_15",30,"None",2208,0,3.18
"11716_16",1,"All",1279,1,3.8
"11716_16",2,"All",2883,1,3.8
"11716_16",3,"None",4751,1,3.8
"11716_16",4,"Some",1863,0,3.8
"11716_16",5,"Some",1263,0,3.8
"11716_16",6,"Some",10524,0,3.8
"11716_16",7,"All",2257,1,3.8
"11716_16",8,"None",1181,0,3.8
"11716_16",9,"All",2248,1,3.8
"11716_16",10,"Some",11377,0,3.8
"11716_16",11,"Some",5225,0,3.8
"11716_16",12,"None",1332,0,3.8
"11716_16",13,"None",7069,1,3.8
"11716_16",14,"All",3903,1,3.8
"11716_16",15,"Some",7889,1,3.8
"11716_16",16,"All",6592,0,3.8
"11716_16",17,"None",3278,0,3.8
"11716_16",18,"None",6764,0,3.8
"11716_16",19,"Some",4039,1,3.8
"11716_16",20,"All",9136,1,3.8
"11716_16",21,"None",767,0,3.8
"11716_16",22,"Some",5004,1,3.8
"11716_16",23,"None",2184,0,3.8
"11716_16",24,"All",9151,0,3.8
"11716_16",25,"Some",2796,0,3.8
"11716_16",26,"None",4904,1,3.8
"11716_16",27,"Some",5301,1,3.8
"11716_16",28,"All",4318,1,3.8
"11716_16",29,"None",7815,0,3.8
"11716_16",30,"All",3124,0,3.8
"11716_17",1,"Some",4728,0,3.64
"11716_17",2,"All",2946,1,3.64
"11716_17",3,"None",4824,0,3.64
"11716_17",4,"All",1801,1,3.64
"11716_17",5,"All",2090,1,3.64
"11716_17",6,"None",3284,0,3.64
"11716_17",7,"Some",5770,1,3.64
"11716_17",8,"All",4080,1,3.64
"11716_17",9,"Some",4582,1,3.64
"11716_17",10,"None",3075,0,3.64
"11716_17",11,"None",3248,1,3.64
"11716_17",12,"Some",2961,0,3.64
"11716_17",13,"Some",3300,1,3.64
"11716_17",14,"Some",3401,1,3.64
"11716_17",15,"None",2768,0,3.64
"11716_17",16,"Some",3885,1,3.64
"11716_17",17,"None",2565,0,3.64
"11716_17",18,"None",3536,0,3.64
"11716_17",19,"None",2696,0,3.64
"11716_17",20,"All",2641,1,3.64
"11716_17",21,"Some",4533,1,3.64
"11716_17",22,"Some",9679,1,3.64
"11716_17",23,"All",3717,1,3.64
"11716_17",24,"All",2003,1,3.64
"11716_17",25,"None",3099,0,3.64
"11716_17",26,"None",2376,0,3.64
"11716_17",27,"Some",2488,1,3.64
"11716_17",28,"All",3894,1,3.64
"11716_17",29,"All",3143,1,3.64
"11716_17",30,"All",1849,1,3.64
"TM002",1,"All",2723,1,4.23
"TM002",2,"Some",8875,1,4.23
"TM002",3,"Some",1842,1,4.23
"TM002",4,"None",3834,1,4.23
"TM002",5,"None",3626,1,4.23
"TM002",6,"None",1689,1,4.23
"TM002",7,"Some",3476,1,4.23
"TM002",8,"Some",2996,1,4.23
"TM002",9,"All",1491,1,4.23
"TM002",10,"Some",2061,1,4.23
"TM002",11,"None",1855,1,4.23
"TM002",12,"All",4926,1,4.23
"TM002",13,"All",3519,0,4.23
"TM002",14,"Some",2699,1,4.23
"TM002",15,"Some",3572,1,4.23
"TM002",16,"None",2979,1,4.23
"TM002",17,"All",2668,1,4.23
"TM002",18,"Some",7005,0,4.23
"TM002",19,"All",1909,1,4.23
"TM002",20,"All",2929,1,4.23
"TM002",21,"All",2278,1,4.23
"TM002",22,"None",2778,1,4.23
"TM002",23,"All",2315,1,4.23
"TM005",1,"All",1500,1,4.81
"TM005",2,"None",2708,1,4.81
"TM005",3,"None",2968,1,4.81
"TM005",4,"All",1128,1,4.81
"TM005",5,"None",1794,1,4.81
"TM005",6,"None",3640,1,4.81
"TM005",7,"Some",1551,1,4.81
"TM005",8,"Some",787,1,4.81
"TM005",9,"None",1857,1,4.81
"TM005",10,"All",1285,0,4.81
"TM005",11,"Some",1498,0,4.81
"TM005",12,"Some",1747,1,4.81
"TM005",13,"All",1462,1,4.81
"TM005",14,"Some",1002,1,4.81
"TM005",15,"All",1330,1,4.81
"TM005",16,"Some",962,1,4.81
"TM005",17,"None",3332,1,4.81
"TM005",18,"None",2714,1,4.81
"TM005",19,"All",1025,1,4.81
"TM005",20,"All",988,1,4.81
"TM005",21,"All",989,1,4.81
"TM005",22,"All",2399,1,4.81
"TM005",23,"None",2592,1,4.81
"TM005",24,"Some",1596,1,4.81
"TM005",25,"Some",886,1,4.81
"TM005",26,"None",2424,1,4.81
"TM005",27,"All",1653,1,4.81
"TM005",28,"Some",1521,1,4.81
"TM005",29,"Some",1100,1,4.81
"TM005",30,"None",1878,1,4.81
"TM006",1,"All",6382,0,4.57
"TM006",2,"Some",5358,0,4.57
"TM006",3,"All",4508,1,4.57
"TM006",4,"None",4061,0,4.57
"TM006",5,"All",3063,0,4.57
"TM006",6,"None",3513,0,4.57
"TM006",7,"All",768,0,4.57
"TM006",8,"None",3542,0,4.57
"TM006",9,"Some",4602,1,4.57
"TM006",10,"None",2224,1,4.57
"TM006",11,"All",1771,0,4.57
"TM006",12,"Some",3030,0,4.57
"TM006",13,"None",5065,0,4.57
"TM006",14,"All",2278,0,4.57
"TM006",15,"All",2222,0,4.57
"TM006",16,"None",3036,0,4.57
"TM006",17,"Some",3270,0,4.57
"TM006",18,"All",1600,0,4.57
"TM006",19,"None",3026,0,4.57
"TM006",20,"Some",3984,1,4.57
"TM006",21,"Some",2608,0,4.57
"TM006",22,"All",2079,0,4.57
"TM006",23,"All",3795,0,4.57
"TM006",24,"None",3303,0,4.57
"TM006",25,"Some",1708,0,4.57
"TM006",26,"Some",3421,0,4.57
"TM006",27,"Some",2907,0,4.57
"TM006",28,"None",3713,0,4.57
"TM006",29,"Some",3750,1,4.57
"TM006",30,"None",3108,0,4.57
"TM007",1,"Some",2095,0,3.84
"TM007",2,"Some",1540,0,3.84
"TM007",3,"None",2581,1,3.84
"TM007",4,"All",1705,0,3.84
"TM007",5,"None",2014,1,3.84
"TM007",6,"All",2771,1,3.84
"TM007",7,"All",1645,1,3.84
"TM007",8,"None",963,1,3.84
"TM007",9,"None",2108,1,3.84
"TM007",10,"Some",2183,0,3.84
"TM007",11,"All",1323,1,3.84
"TM007",12,"All",843,1,3.84
"TM007",13,"Some",1676,0,3.84
"TM007",14,"All",1475,1,3.84
"TM007",15,"Some",1612,0,3.84
"TM007",18,"None",1564,0,3.84
"TM007",19,"All",2795,0,3.84
"TM007",20,"None",884,1,3.84
"TM007",21,"Some",606,0,3.84
"TM007",22,"Some",1151,0,3.84
"TM007",23,"Some",634,0,3.84
"TM007",24,"All",4135,1,3.84
"TM007",25,"None",1295,1,3.84
"TM007",26,"Some",2040,0,3.84
"TM007",27,"None",1802,0,3.84
"TM007",28,"Some",653,0,3.84
"TM007",29,"All",6296,0,3.84
"TM007",30,"All",1333,1,3.84
"12016_3",1,"None",8894,1,3.93
"12016_3",2,"Some",2087,0,3.93
"12016_3",3,"Some",1277,1,3.93
"12016_3",4,"All",1809,1,3.93
"12016_3",5,"Some",3620,1,3.93
"12016_3",6,"All",2216,1,3.93
"12016_3",7,"All",2317,1,3.93
"12016_3",8,"Some",2822,1,3.93
"12016_3",9,"Some",1527,1,3.93
"12016_3",10,"None",3480,1,3.93
"12016_3",11,"All",3558,1,3.93
"12016_3",12,"None",3387,1,3.93
"12016_3",13,"None",4518,1,3.93
"12016_3",14,"None",3520,1,3.93
"12016_3",15,"Some",2162,1,3.93
"12016_3",16,"All",1497,1,3.93
"12016_3",17,"Some",2843,1,3.93
"12016_3",18,"None",1936,0,3.93
"12016_3",19,"All",1547,1,3.93
"12016_3",20,"All",1634,1,3.93
"12016_3",21,"All",4670,1,3.93
"12016_3",22,"None",5686,1,3.93
"12016_3",23,"None",9537,1,3.93
"12016_3",24,"Some",4252,1,3.93
"12016_3",25,"None",4266,1,3.93
"12016_3",26,"All",1211,1,3.93
"12016_3",27,"Some",3201,0,3.93
"12016_3",28,"None",2630,1,3.93
"12016_3",29,"Some",2011,1,3.93
"12016_3",30,"All",1630,1,3.93
"12016_4",1,"All",13499,1,3.27
"12016_4",2,"Some",4116,0,3.27
"12016_4",3,"Some",4889,0,3.27
"12016_4",4,"All",2461,1,3.27
"12016_4",5,"Some",5430,0,3.27
"12016_4",6,"None",1445,0,3.27
"12016_4",7,"None",10489,0,3.27
"12016_4",8,"Some",3053,0,3.27
"12016_4",9,"All",3568,1,3.27
"12016_4",10,"None",1451,0,3.27
"12016_4",12,"None",1949,0,3.27
"12016_4",13,"Some",2731,0,3.27
"12016_4",14,"None",1255,0,3.27
"12016_4",15,"None",1840,0,3.27
"12016_4",16,"All",939,1,3.27
"12016_4",17,"All",2039,1,3.27
"12016_4",18,"All",1748,1,3.27
"12016_4",19,"All",1233,1,3.27
"12016_4",20,"None",1055,0,3.27
"12016_4",21,"None",10285,0,3.27
"12016_4",22,"All",2247,1,3.27
"12016_4",23,"None",2097,0,3.27
"12016_4",24,"Some",1657,0,3.27
"12016_4",25,"All",1186,1,3.27
"12016_4",26,"All",1531,1,3.27
"12016_4",27,"Some",1324,0,3.27
"12016_4",28,"Some",864,0,3.27
"12016_4",29,"Some",1447,0,3.27
"12016_4",30,"None",1356,0,3.27
"12016_5",1,"None",8303,0,3.03
"12016_5",2,"All",10156,1,3.03
"12016_5",3,"Some",1614,0,3.03
"12016_5",4,"None",8593,0,3.03
"12016_5",5,"None",2589,0,3.03
"12016_5",6,"Some",5475,0,3.03
"12016_5",7,"Some",7298,0,3.03
"12016_5",8,"All",7514,1,3.03
"12016_5",9,"All",6615,1,3.03
"12016_5",10,"Some",2138,0,3.03
"12016_5",11,"Some",2926,0,3.03
"12016_5",13,"All",5191,1,3.03
"12016_5",14,"None",4817,0,3.03
"12016_5",15,"None",8775,0,3.03
"12016_5",16,"Some",2444,0,3.03
"12016_5",17,"Some",3364,0,3.03
"12016_5",18,"All",2259,1,3.03
"12016_5",19,"None",1944,0,3.03
"12016_5",21,"Some",4534,0,3.03
"12016_5",22,"Some",2778,0,3.03
"12016_5",23,"All",3396,0,3.03
"12016_5",24,"None",4326,0,3.03
"12016_5",26,"None",3736,0,3.03
"12016_5",27,"All",5379,1,3.03
"12016_5",28,"None",6555,1,3.03
"12016_5",29,"All",2574,1,3.03
"12016_5",30,"Some",4003,0,3.03
"12016_7",1,"None",2448,0,4.76
"12016_7",2,"All",2282,1,4.76
"12016_7",3,"Some",2764,1,4.76
"12016_7",4,"All",989,1,4.76
"12016_7",5,"None",3430,1,4.76
"12016_7",6,"Some",3266,1,4.76
"12016_7",7,"All",1221,1,4.76
"12016_7",8,"All",988,1,4.76
"12016_7",9,"Some",3607,1,4.76
"12016_7",10,"Some",2509,1,4.76
"12016_7",11,"None",6509,1,4.76
"12016_7",12,"None",3452,1,4.76
"12016_7",13,"All",2408,1,4.76
"12016_7",14,"All",1368,1,4.76
"12016_7",15,"All",1331,1,4.76
"12016_7",16,"All",8371,1,4.76
"12016_7",17,"All",2690,1,4.76
"12016_7",18,"Some",1201,1,4.76
"12016_7",19,"None",4994,1,4.76
"12016_7",20,"None",4726,1,4.76
"12016_7",21,"None",2256,1,4.76
"12016_7",22,"Some",2458,1,4.76
"12016_7",24,"Some",1321,0,4.76
"12016_7",25,"None",3147,1,4.76
"12016_7",26,"All",1848,1,4.76
"12016_7",27,"Some",2150,1,4.76
"12016_7",28,"Some",3083,1,4.76
"12016_7",29,"None",5193,1,4.76
"12016_7",30,"None",3911,1,4.76
"11916_10",1,"None",6794,1,3.39
"11916_10",2,"All",2676,1,3.39
"11916_10",3,"None",4273,1,3.39
"11916_10",4,"None",6496,1,3.39
"11916_10",5,"All",1564,1,3.39
"11916_10",6,"None",2855,1,3.39
"11916_10",7,"None",4830,1,3.39
"11916_10",8,"Some",3663,0,3.39
"11916_10",9,"None",3489,1,3.39
"11916_10",10,"All",3032,1,3.39
"11916_10",11,"None",2496,1,3.39
"11916_10",12,"None",3829,1,3.39
"11916_10",13,"None",1815,1,3.39
"11916_10",14,"All",3594,1,3.39
"11916_10",15,"Some",2473,1,3.39
"11916_10",16,"Some",4395,0,3.39
"11916_10",17,"Some",2245,0,3.39
"11916_10",18,"Some",2955,0,3.39
"11916_10",19,"Some",2032,0,3.39
"11916_10",20,"Some",3076,0,3.39
"11916_10",21,"Some",1930,0,3.39
"11916_10",22,"None",2057,1,3.39
"11916_10",23,"All",2934,1,3.39
"11916_10",24,"All",1097,1,3.39
"11916_10",25,"Some",1488,0,3.39
"11916_10",26,"Some",1645,0,3.39
"11916_10",27,"All",1958,1,3.39
"11916_10",28,"All",1900,1,3.39
"11916_10",29,"All",4517,1,3.39
"11916_10",30,"All",1767,1,3.39
"12016_11",1,"All",4465,1,4.18
"12016_11",2,"None",2902,0,4.18
"12016_11",3,"All",1850,1,4.18
"12016_11",4,"Some",3137,0,4.18
"12016_11",5,"None",1990,0,4.18
"12016_11",6,"Some",1128,0,4.18
"12016_11",7,"All",900,1,4.18
"12016_11",8,"Some",2155,0,4.18
"12016_11",9,"None",2912,0,4.18
"12016_11",10,"All",2493,0,4.18
"12016_11",11,"None",2922,0,4.18
"12016_11",12,"Some",2391,0,4.18
"12016_11",13,"None",2463,1,4.18
"12016_11",14,"All",1888,1,4.18
"12016_11",15,"Some",2015,0,4.18
"12016_11",16,"Some",1700,0,4.18
"12016_11",17,"None",2087,1,4.18
"12016_11",18,"None",3289,0,4.18
"12016_11",19,"All",4255,0,4.18
"12016_11",20,"All",3125,0,4.18
"12016_11",21,"Some",1365,0,4.18
"12016_11",22,"Some",1707,0,4.18
"12016_11",23,"None",2790,0,4.18
"12016_11",24,"Some",2694,1,4.18
"12016_11",25,"Some",4083,1,4.18
"12016_11",26,"None",2342,0,4.18
"12016_11",27,"All",5855,1,4.18
"12016_11",28,"All",2232,0,4.18
"12016_11",29,"None",3800,0,4.18
"12016_11",30,"All",4311,1,4.18
"12016_12",1,"All",3679,1,4.28
"12016_12",2,"Some",5400,0,4.28
"12016_12",3,"Some",4011,0,4.28
"12016_12",4,"All",1173,1,4.28
"12016_12",5,"All",1356,1,4.28
"12016_12",6,"Some",944,0,4.28
"12016_12",7,"All",1898,1,4.28
"12016_12",8,"Some",3306,0,4.28
"12016_12",9,"None",7853,0,4.28
"12016_12",10,"None",5277,1,4.28
"12016_12",11,"Some",4384,0,4.28
"12016_12",12,"All",1626,1,4.28
"12016_12",13,"None",7105,1,4.28
"12016_12",14,"Some",1822,0,4.28
"12016_12",15,"Some",1307,0,4.28
"12016_12",16,"Some",4237,0,4.28
"12016_12",17,"None",5087,1,4.28
"12016_12",18,"None",3457,0,4.28
"12016_12",19,"None",3679,1,4.28
"12016_12",20,"All",1136,1,4.28
"12016_12",21,"None",1712,1,4.28
"12016_12",22,"All",3613,1,4.28
"12016_12",23,"All",3478,1,4.28
"12016_12",24,"None",1345,1,4.28
"12016_12",25,"Some",7538,1,4.28
"12016_12",26,"None",6720,0,4.28
"12016_12",27,"All",1153,1,4.28
"12016_12",28,"All",1545,1,4.28
"12016_12",29,"Some",6370,1,4.28
"12016_12",30,"None",7247,1,4.28
"12016_13",1,"None",5136,0,3.69
"12016_13",2,"None",4526,0,3.69
"12016_13",3,"All",6011,1,3.69
"12016_13",4,"Some",5644,0,3.69
"12016_13",5,"Some",4178,0,3.69
"12016_13",6,"None",4960,0,3.69
"12016_13",7,"None",3231,0,3.69
"12016_13",8,"Some",6035,0,3.69
"12016_13",9,"None",4989,0,3.69
"12016_13",10,"Some",5054,0,3.69
"12016_13",11,"All",4509,1,3.69
"12016_13",13,"All",4184,1,3.69
"12016_13",14,"Some",4521,0,3.69
"12016_13",15,"None",4697,0,3.69
"12016_13",16,"All",3237,1,3.69
"12016_13",17,"All",5762,1,3.69
"12016_13",18,"All",4444,1,3.69
"12016_13",19,"All",6116,1,3.69
"12016_13",20,"Some",3264,0,3.69
"12016_13",21,"None",7080,0,3.69
"12016_13",22,"All",5762,1,3.69
"12016_13",23,"Some",3326,0,3.69
"12016_13",24,"Some",7754,0,3.69
"12016_13",25,"None",3231,0,3.69
"12016_13",26,"None",5413,0,3.69
"12016_13",27,"Some",3092,0,3.69
"12016_13",28,"All",4588,1,3.69
"12016_13",29,"All",3583,1,3.69
"12016_13",30,"None",2975,0,3.69
"12016_14",1,"None",3530,0,5.4
"12016_14",2,"All",1328,1,5.4
"12016_14",3,"Some",2449,0,5.4
"12016_14",4,"All",1312,1,5.4
"12016_14",5,"Some",2232,0,5.4
"12016_14",6,"Some",1733,0,5.4
"12016_14",7,"None",3104,0,5.4
"12016_14",8,"All",1369,1,5.4
"12016_14",9,"All",1115,1,5.4
"12016_14",10,"All",2524,1,5.4
"12016_14",11,"Some",3117,0,5.4
"12016_14",12,"Some",1385,0,5.4
"12016_14",13,"None",979,0,5.4
"12016_14",14,"Some",2397,0,5.4
"12016_14",15,"None",1431,0,5.4
"12016_14",16,"Some",1986,0,5.4
"12016_14",17,"None",3449,0,5.4
"12016_14",18,"All",1162,1,5.4
"12016_14",19,"All",2573,1,5.4
"12016_14",20,"None",1723,0,5.4
"12016_14",21,"All",818,1,5.4
"12016_14",22,"None",1501,0,5.4
"12016_14",23,"Some",980,0,5.4
"12016_14",24,"None",1148,0,5.4
"12016_14",25,"Some",1573,0,5.4
"12016_14",26,"All",1769,1,5.4
"12016_14",27,"Some",998,0,5.4
"12016_14",28,"None",1925,0,5.4
"12016_14",29,"None",1231,0,5.4
"12016_14",30,"All",941,1,5.4
"12116_1",1,"None",1856,1,5.9
"12116_1",2,"Some",3666,1,5.9
"12116_1",3,"All",1595,1,5.9
"12116_1",4,"All",2086,1,5.9
"12116_1",5,"Some",1049,1,5.9
"12116_1",6,"Some",887,1,5.9
"12116_1",7,"Some",1321,1,5.9
"12116_1",8,"None",1916,1,5.9
"12116_1",9,"Some",1068,1,5.9
"12116_1",10,"None",1760,1,5.9
"12116_1",11,"None",1584,1,5.9
"12116_1",12,"None",3790,1,5.9
"12116_1",13,"None",4125,1,5.9
"12116_1",14,"Some",897,1,5.9
"12116_1",15,"All",1454,1,5.9
"12116_1",16,"None",1828,1,5.9
"12116_1",17,"Some",2808,1,5.9
"12116_1",18,"All",3729,1,5.9
"12116_1",21,"All",1048,1,5.9
"12116_1",23,"All",1092,1,5.9
"12116_1",25,"Some",1621,1,5.9
"12116_1",26,"All",1705,1,5.9
"12116_1",27,"Some",1203,1,5.9
"12116_1",28,"Some",1778,1,5.9
"12116_1",29,"All",837,1,5.9
"12116_1",30,"All",1723,1,5.9
"12116_2",1,"None",3917,0,4.33
"12116_2",2,"None",2835,0,4.33
"12116_2",3,"Some",2249,0,4.33
"12116_2",4,"None",1403,0,4.33
"12116_2",5,"All",2129,1,4.33
"12116_2",6,"Some",4304,1,4.33
"12116_2",7,"All",2852,1,4.33
"12116_2",8,"All",974,1,4.33
"12116_2",9,"Some",1234,0,4.33
"12116_2",10,"Some",2015,0,4.33
"12116_2",11,"Some",2110,0,4.33
"12116_2",12,"Some",1694,0,4.33
"12116_2",13,"None",1123,0,4.33
"12116_2",14,"All",3035,1,4.33
"12116_2",15,"None",3330,0,4.33
"12116_2",16,"None",2124,0,4.33
"12116_2",17,"All",2070,0,4.33
"12116_2",18,"All",2190,1,4.33
"12116_2",19,"All",2210,1,4.33
"12116_2",20,"None",789,0,4.33
"12116_2",21,"All",1424,1,4.33
"12116_2",22,"None",1928,0,4.33
"12116_2",23,"Some",10297,0,4.33
"12116_2",24,"None",5230,0,4.33
"12116_2",25,"All",6251,0,4.33
"12116_2",26,"Some",7619,0,4.33
"12116_2",27,"Some",2055,0,4.33
"12116_2",28,"Some",1610,0,4.33
"12116_2",29,"All",1676,1,4.33
"12116_2",30,"None",1248,0,4.33
"12116_3",1,"Some",2281,1,5.09
"12116_3",2,"None",4539,1,5.09
"12116_3",3,"None",3420,1,5.09
"12116_3",4,"Some",1897,1,5.09
"12116_3",5,"Some",1285,1,5.09
"12116_3",6,"None",3268,1,5.09
"12116_3",7,"All",1757,1,5.09
"12116_3",8,"Some",2984,1,5.09
"12116_3",9,"None",2516,1,5.09
"12116_3",10,"None",2723,1,5.09
"12116_3",11,"Some",1142,1,5.09
"12116_3",12,"All",1569,1,5.09
"12116_3",13,"Some",1077,1,5.09
"12116_3",14,"Some",2577,1,5.09
"12116_3",15,"Some",2143,1,5.09
"12116_3",16,"All",1430,1,5.09
"12116_3",17,"All",2284,1,5.09
"12116_3",18,"None",2958,1,5.09
"12116_3",19,"None",1656,1,5.09
"12116_3",20,"None",2944,1,5.09
"12116_3",21,"All",1513,1,5.09
"12116_3",22,"None",5969,1,5.09
"12116_3",23,"Some",2857,1,5.09
"12116_3",24,"All",1758,1,5.09
"12116_3",25,"All",1400,1,5.09
"12116_3",26,"All",535,1,5.09
"12116_3",27,"None",1810,1,5.09
"12116_3",28,"All",4088,1,5.09
"12116_3",29,"All",2796,1,5.09
"12116_3",30,"Some",1335,1,5.09
"12116_4",1,"All",1618,1,3.25
"12116_4",2,"None",2625,0,3.25
"12116_4",3,"None",8137,0,3.25
"12116_4",4,"All",6236,1,3.25
"12116_4",5,"All",3291,1,3.25
"12116_4",6,"All",4758,1,3.25
"12116_4",7,"None",9153,0,3.25
"12116_4",8,"Some",3352,0,3.25
"12116_4",9,"Some",1923,0,3.25
"12116_4",10,"All",3333,1,3.25
"12116_4",11,"Some",4504,0,3.25
"12116_4",12,"All",2726,1,3.25
"12116_4",13,"Some",2572,1,3.25
"12116_4",14,"None",2157,0,3.25
"12116_4",15,"Some",2054,0,3.25
"12116_4",16,"Some",4400,0,3.25
"12116_4",17,"All",2955,1,3.25
"12116_4",18,"All",3805,1,3.25
"12116_4",19,"Some",4055,1,3.25
"12116_4",20,"None",2776,0,3.25
"12116_4",21,"All",4069,1,3.25
"12116_4",22,"Some",4640,0,3.25
"12116_4",23,"None",5983,0,3.25
"12116_4",24,"None",3817,0,3.25
"12116_4",25,"Some",3321,0,3.25
"12116_4",26,"Some",1994,0,3.25
"12116_4",27,"None",3022,0,3.25
"12116_4",28,"All",3639,1,3.25
"12116_4",29,"None",2030,0,3.25
"12116_4",30,"None",3713,0,3.25
"12116_6",1,"None",4370,0,3.59
"12116_6",2,"Some",4066,0,3.59
"12116_6",3,"Some",1458,0,3.59
"12116_6",4,"Some",2405,0,3.59
"12116_6",5,"Some",1917,0,3.59
"12116_6",6,"None",1854,0,3.59
"12116_6",7,"None",7023,0,3.59
"12116_6",8,"All",1750,1,3.59
"12116_6",9,"All",2562,1,3.59
"12116_6",10,"Some",1558,0,3.59
"12116_6",11,"Some",2289,0,3.59
"12116_6",12,"Some",1538,0,3.59
"12116_6",13,"All",1778,1,3.59
"12116_6",14,"Some",3766,0,3.59
"12116_6",15,"Some",1095,0,3.59
"12116_6",16,"All",2016,1,3.59
"12116_6",17,"All",746,1,3.59
"12116_6",18,"All",1466,1,3.59
"12116_6",19,"All",2609,1,3.59
"12116_6",20,"None",1161,0,3.59
"12116_6",21,"All",1133,1,3.59
"12116_6",22,"None",1789,0,3.59
"12116_6",23,"None",1813,0,3.59
"12116_6",24,"Some",2615,0,3.59
"12116_6",25,"None",1150,0,3.59
"12116_6",26,"None",2065,0,3.59
"12116_6",27,"All",9304,1,3.59
"12116_6",28,"All",1096,0,3.59
"12116_6",29,"None",1812,0,3.59
"12116_6",30,"None",7218,0,3.59
"12116_7",1,"All",1257,1,5.25
"12116_7",2,"All",1885,1,5.25
"12116_7",3,"None",1335,0,5.25
"12116_7",4,"None",2612,0,5.25
"12116_7",5,"Some",3465,1,5.25
"12116_7",6,"All",1776,1,5.25
"12116_7",7,"None",1630,0,5.25
"12116_7",8,"None",1590,0,5.25
"12116_7",9,"Some",3716,1,5.25
"12116_7",10,"Some",1698,1,5.25
"12116_7",11,"All",1647,1,5.25
"12116_7",12,"Some",1581,1,5.25
"12116_7",13,"None",1553,0,5.25
"12116_7",14,"None",1268,0,5.25
"12116_7",15,"All",1114,1,5.25
"12116_7",16,"All",1403,1,5.25
"12116_7",17,"None",1488,0,5.25
"12116_7",18,"All",2628,1,5.25
"12116_7",19,"Some",1314,1,5.25
"12116_7",20,"Some",1434,1,5.25
"12116_7",21,"All",1179,1,5.25
"12116_7",22,"None",4119,0,5.25
"12116_7",23,"Some",1669,1,5.25
"12116_7",24,"All",910,1,5.25
"12116_7",25,"None",5021,1,5.25
"12116_7",26,"None",1621,1,5.25
"12116_7",27,"Some",4427,1,5.25
"12116_7",28,"Some",1595,1,5.25
"12116_7",29,"Some",3129,0,5.25
"12116_7",30,"All",2499,1,5.25
"12216_2",1,"All",6368,0,3.92
"12216_2",2,"None",5367,0,3.92
"12216_2",3,"All",6156,1,3.92
"12216_2",4,"None",2721,1,3.92
"12216_2",5,"None",1840,1,3.92
"12216_2",6,"Some",1365,0,3.92
"12216_2",7,"Some",2961,1,3.92
"12216_2",8,"Some",4799,0,3.92
"12216_2",9,"All",7507,1,3.92
"12216_2",10,"All",3263,1,3.92
"12216_2",11,"Some",4661,0,3.92
"12216_2",12,"All",3809,1,3.92
"12216_2",13,"All",3173,1,3.92
"12216_2",15,"All",3156,1,3.92
"12216_2",17,"None",6154,0,3.92
"12216_2",18,"None",3703,0,3.92
"12216_2",19,"Some",6250,0,3.92
"12216_2",20,"None",6286,0,3.92
"12216_2",21,"None",2978,0,3.92
"12216_2",22,"Some",5078,0,3.92
"12216_2",23,"None",4346,0,3.92
"12216_2",24,"Some",1916,0,3.92
"12216_2",25,"None",2430,0,3.92
"12216_2",26,"All",2712,1,3.92
"12216_2",27,"All",2374,1,3.92
"12216_2",28,"Some",3530,0,3.92
"12216_2",29,"None",4222,0,3.92
"12216_2",30,"All",2577,1,3.92
"12216_3",1,"All",1284,0,3.69
"12216_3",2,"Some",3415,0,3.69
"12216_3",3,"Some",5455,1,3.69
"12216_3",4,"All",1123,0,3.69
"12216_3",5,"All",4281,0,3.69
"12216_3",6,"None",5173,0,3.69
"12216_3",7,"None",4861,1,3.69
"12216_3",8,"All",4173,1,3.69
"12216_3",9,"Some",1060,1,3.69
"12216_3",10,"None",2715,0,3.69
"12216_3",11,"Some",4140,1,3.69
"12216_3",12,"None",4576,1,3.69
"12216_3",13,"All",4271,0,3.69
"12216_3",14,"Some",4354,0,3.69
"12216_3",15,"Some",2407,1,3.69
"12216_3",16,"Some",6090,0,3.69
"12216_3",17,"None",2144,1,3.69
"12216_3",18,"All",4128,1,3.69
"12216_3",19,"All",3778,0,3.69
"12216_3",20,"None",3616,0,3.69
"12216_3",21,"None",4239,1,3.69
"12216_3",22,"Some",3735,0,3.69
"12216_3",23,"None",3333,0,3.69
"12216_3",24,"All",5301,0,3.69
"12216_3",25,"All",2983,0,3.69
"12216_3",26,"All",2888,1,3.69
"12216_3",27,"None",4216,1,3.69
"12216_3",28,"Some",3344,0,3.69
"12216_3",29,"Some",3586,0,3.69
"12216_3",30,"None",3735,0,3.69
"12216_4",1,"All",859,1,5.56
"12216_4",2,"None",1499,1,5.56
"12216_4",3,"None",2807,1,5.56
"12216_4",4,"All",1354,1,5.56
"12216_4",5,"All",2275,1,5.56
"12216_4",6,"All",2025,1,5.56
"12216_4",7,"Some",1520,1,5.56
"12216_4",8,"Some",2250,1,5.56
"12216_4",9,"All",1024,1,5.56
"12216_4",10,"Some",2462,1,5.56
"12216_4",11,"Some",3664,1,5.56
"12216_4",12,"All",1991,1,5.56
"12216_4",13,"None",1101,0,5.56
"12216_4",14,"All",2116,1,5.56
"12216_4",15,"Some",1137,0,5.56
"12216_4",16,"Some",1096,1,5.56
"12216_4",17,"None",2000,0,5.56
"12216_4",18,"Some",2303,1,5.56
"12216_4",19,"None",3166,1,5.56
"12216_4",20,"None",3752,0,5.56
"12216_4",21,"All",2589,1,5.56
"12216_4",22,"Some",668,1,5.56
"12216_4",23,"None",1720,1,5.56
"12216_4",24,"All",1237,1,5.56
"12216_4",25,"All",1260,1,5.56
"12216_4",26,"Some",1276,1,5.56
"12216_4",27,"Some",1797,1,5.56
"12216_4",28,"None",4010,1,5.56
"12216_4",29,"None",890,1,5.56
"12216_4",30,"None",1219,1,5.56
"12216_5",1,"Some",2986,1,5.1
"12216_5",2,"None",3644,1,5.1
"12216_5",3,"All",1756,1,5.1
"12216_5",4,"Some",2036,1,5.1
"12216_5",5,"Some",2910,1,5.1
"12216_5",6,"All",3476,1,5.1
"12216_5",7,"All",1974,1,5.1
"12216_5",8,"All",1322,1,5.1
"12216_5",9,"All",1622,1,5.1
"12216_5",10,"All",3650,1,5.1
"12216_5",11,"Some",1934,1,5.1
"12216_5",12,"None",2586,1,5.1
"12216_5",13,"None",2244,1,5.1
"12216_5",14,"None",12015,0,5.1
"12216_5",15,"Some",2994,1,5.1
"12216_5",16,"None",10291,0,5.1
"12216_5",17,"Some",1855,1,5.1
"12216_5",18,"Some",2323,1,5.1
"12216_5",19,"All",1477,1,5.1
"12216_5",20,"None",2547,1,5.1
"12216_5",21,"None",2360,1,5.1
"12216_5",22,"All",2458,1,5.1
"12216_5",23,"Some",2719,1,5.1
"12216_5",24,"All",4606,1,5.1
"12216_5",25,"Some",2853,1,5.1
"12216_5",26,"None",3235,1,5.1
"12216_5",27,"All",2159,1,5.1
"12216_5",28,"None",2349,1,5.1
"12216_5",29,"Some",1929,1,5.1
"12216_5",30,"None",2464,1,5.1
"12216_6",1,"All",1956,0,3.32
"12216_6",2,"All",2505,1,3.32
"12216_6",3,"All",3039,0,3.32
"12216_6",4,"None",5040,0,3.32
"12216_6",5,"Some",4324,0,3.32
"12216_6",6,"Some",10218,0,3.32
"12216_6",7,"Some",2370,0,3.32
"12216_6",8,"All",1916,1,3.32
"12216_6",9,"None",1701,0,3.32
"12216_6",10,"Some",1382,0,3.32
"12216_6",11,"Some",3281,0,3.32
"12216_6",12,"None",1271,0,3.32
"12216_6",13,"None",950,0,3.32
"12216_6",14,"All",4088,1,3.32
"12216_6",15,"All",2573,1,3.32
"12216_6",16,"None",2354,0,3.32
"12216_6",17,"Some",2856,0,3.32
"12216_6",18,"Some",2946,0,3.32
"12216_6",19,"None",1132,0,3.32
"12216_6",20,"Some",2671,0,3.32
"12216_6",21,"Some",3447,0,3.32
"12216_6",22,"None",2609,0,3.32
"12216_6",23,"All",2418,1,3.32
"12216_6",24,"Some",1944,0,3.32
"12216_6",25,"All",1425,1,3.32
"12216_6",26,"All",1387,0,3.32
"12216_6",27,"None",2825,0,3.32
"12216_6",28,"All",1744,1,3.32
"12216_6",29,"None",2365,0,3.32
"12216_6",30,"None",2722,0,3.32
"12216_7",1,"All",1345,1,3.32
"12216_7",2,"None",2505,0,3.32
"12216_7",3,"All",4737,1,3.32
"12216_7",4,"None",1304,0,3.32
"12216_7",5,"Some",1712,0,3.32
"12216_7",6,"Some",962,0,3.32
"12216_7",7,"None",2102,0,3.32
"12216_7",8,"Some",5555,0,3.32
"12216_7",9,"All",3038,1,3.32
"12216_7",10,"Some",1170,0,3.32
"12216_7",11,"None",1495,0,3.32
"12216_7",12,"Some",1739,0,3.32
"12216_7",13,"None",2198,0,3.32
"12216_7",14,"Some",1888,0,3.32
"12216_7",15,"None",2989,0,3.32
"12216_7",16,"All",3354,1,3.32
"12216_7",17,"Some",2189,0,3.32
"12216_7",18,"All",1111,1,3.32
"12216_7",19,"None",3941,1,3.32
"12216_7",20,"All",932,1,3.32
"12216_7",21,"All",1045,1,3.32
"12216_7",22,"None",4148,0,3.32
"12216_7",23,"All",957,1,3.32
"12216_7",24,"Some",4376,0,3.32
"12216_7",25,"Some",3224,0,3.32
"12216_7",26,"All",1753,1,3.32
"12216_7",27,"Some",1625,0,3.32
"12216_7",28,"All",1250,1,3.32
"12216_7",29,"None",1970,0,3.32
"12216_7",30,"None",4010,0,3.32
"12216_8",1,"All",1682,1,5.73
"12216_8",2,"All",1340,1,5.73
"12216_8",3,"All",1681,1,5.73
"12216_8",4,"None",1560,0,5.73
"12216_8",5,"None",2770,0,5.73
"12216_8",6,"None",4287,0,5.73
"12216_8",7,"None",3506,0,5.73
"12216_8",8,"Some",2783,0,5.73
"12216_8",9,"Some",2026,0,5.73
"12216_8",11,"None",1006,0,5.73
"12216_8",12,"All",2225,1,5.73
"12216_8",13,"Some",1223,0,5.73
"12216_8",14,"None",3294,0,5.73
"12216_8",15,"Some",1892,0,5.73
"12216_8",16,"Some",1767,1,5.73
"12216_8",17,"None",1989,0,5.73
"12216_8",18,"All",1298,1,5.73
"12216_8",19,"All",5919,0,5.73
"12216_8",20,"None",3244,0,5.73
"12216_8",21,"All",2107,1,5.73
"12216_8",22,"Some",1017,0,5.73
"12216_8",23,"All",1892,1,5.73
"12216_8",24,"None",2058,0,5.73
"12216_8",25,"Some",1291,0,5.73
"12216_8",26,"Some",1494,0,5.73
"12216_8",27,"Some",2604,0,5.73
"12216_8",28,"All",1310,1,5.73
"12216_8",29,"None",3613,0,5.73
"12216_8",30,"Some",1307,0,5.73
"12216_10",2,"All",5810,1,3.98
"12216_10",3,"Some",4497,0,3.98
"12216_10",4,"Some",4871,0,3.98
"12216_10",5,"None",4350,0,3.98
"12216_10",6,"All",2824,1,3.98
"12216_10",7,"All",4040,0,3.98
"12216_10",8,"None",2054,0,3.98
"12216_10",9,"Some",8928,0,3.98
"12216_10",10,"Some",9069,0,3.98
"12216_10",11,"Some",5723,0,3.98
"12216_10",12,"None",14917,0,3.98
"12216_10",13,"None",4970,1,3.98
"12216_10",14,"All",4718,0,3.98
"12216_10",15,"All",5133,1,3.98
"12216_10",16,"Some",3485,0,3.98
"12216_10",17,"Some",2513,0,3.98
"12216_10",18,"All",1656,1,3.98
"12216_10",19,"All",2571,1,3.98
"12216_10",20,"None",5112,0,3.98
"12216_10",21,"Some",14156,1,3.98
"12216_10",22,"All",6451,0,3.98
"12216_10",23,"None",4597,0,3.98
"12216_10",24,"None",3004,0,3.98
"12216_10",25,"Some",3554,0,3.98
"12216_10",26,"None",4375,0,3.98
"12216_10",27,"Some",595,0,3.98
"12216_10",28,"None",4331,0,3.98
"12216_10",29,"All",2689,0,3.98
"12216_10",30,"All",1835,0,3.98
"12416_2",1,"All",4061,1,5.2
"12416_2",2,"Some",6083,1,5.2
"12416_2",3,"All",2695,0,5.2
"12416_2",4,"None",7807,0,5.2
"12416_2",5,"All",2045,1,5.2
"12416_2",6,"All",4650,0,5.2
"12416_2",7,"All",1161,0,5.2
"12416_2",8,"All",1965,1,5.2
"12416_2",9,"None",6223,1,5.2
"12416_2",10,"All",2901,1,5.2
"12416_2",11,"None",7089,1,5.2
"12416_2",12,"Some",9733,1,5.2
"12416_2",13,"None",4252,1,5.2
"12416_2",14,"None",6434,1,5.2
"12416_2",15,"None",3934,1,5.2
